systemTimeStamp,timeStartup,timeGps,timeSyncIn,timeGpsPps,utcYear,utcMonth,utcDay,utcHour,utcMinute,utcSecond,utcFracsec,imuStatus,temperature,pressure,magX,magY,magZ,accelX,accelY,accelZ,gps1UtcYear,gps1UtcMonth,gps1UtcDay,gps1UtcHour,gps1UtcMinute,gps1UtcSecond,gps1UtcFracsec,gnss1NumSats,gnss1Fix,gnss1PosLat,gnss1PosLon,gnss1PosAlt,gnss1PosEcefX,gnss1PosEcefY,gnss1PosEcefY,gnss1PosUncertaintyN,gnss1PosUncertaintyE,gnss1PosUncertaintyD,yaw,pitch,roll,quatX,quatY,quatZ,quatW,insStatus,lat,lon,alt,posEcefX,posEcefY,posEcefZ,posU
149121335298,154926257000,1421434420677879552,154926257000,677883000,25,1,20,18,53,26,678,16,24.489998,102.177002,0.852367,2.120067,3.720895,0.466010,-9.877217,0.620634,25,1,20,18,53,22,600,7,3,32.866479,-117.254057,-22.216000,-2455689.435111,-4767186.333445,3441518.133076,40.273464,16.235056,49.516537,-63.663044,1.916917,93.446648,0.624516,-0.374195,-0.371857,0.575917,41093,32.866549,-117.254049,-29.437832,-2455684.095533,-4767177.626265,3441520.850412,5.087405
149147075872,154951257000,1421434420702879744,154951257000,702883000,25,1,20,18,53,26,703,16,24.500000,102.181007,0.853088,2.121745,3.718965,0.399531,-9.859674,0.638911,25,1,20,18,53,22,600,7,3,32.866479,-117.254057,-22.216000,-2455689.435111,-4767186.333445,3441518.133076,40.273464,16.235056,49.516537,-63.705688,1.929133,93.441902,0.624391,-0.374350,-0.372152,0.575762,14469,32.866549,-117.254049,-29.438823,-2455684.096250,-4767177.625616,3441520.848972,5.091499
149171528187,154976257000,1421434420727879680,154976257000,727883000,25,1,20,18,53,26,728,0,24.500000,102.169006,0.852149,2.121996,3.721812,0.378049,-9.776359,0.583879,25,1,20,18,53,22,600,7,3,32.866479,-117.254057,-22.216000,-2455689.435111,-4767186.333445,3441518.133076,40.273464,16.235056,49.516537,-63.738735,1.938098,93.424187,0.624221,-0.374426,-0.372423,0.575720,14469,32.866549,-117.254049,-29.439859,-2455684.096908,-4767177.624982,3441520.847467,5.095607
149196247187,155001257000,1421434420752879616,155001257000,752883000,25,1,20,18,53,26,753,16,24.489998,102.177002,0.853758,2.120327,3.720890,0.313405,-9.707663,0.561191,25,1,20,18,53,22,600,7,3,32.866479,-117.254057,-22.216000,-2455689.435111,-4767186.333445,3441518.133076,40.273464,16.235056,49.516537,-63.767586,1.950271,93.405731,0.624071,-0.374461,-0.372694,0.575685,41093,32.866549,-117.254049,-29.440812,-2455684.097662,-4767177.624404,3441520.845972,5.099728
149222028076,155026257000,1421434420777879808,155026257000,777883000,25,1,20,18,53,26,778,16,24.500000,102.181007,0.853519,2.121555,3.724433,0.289118,-9.691699,0.551081,25,1,20,18,53,22,600,7,3,32.866479,-117.254057,-22.216000,-2455689.435111,-4767186.333445,3441518.133076,40.273464,16.235056,49.516537,-63.795597,1.960755,93.398384,0.623975,-0.374535,-0.372914,0.575598,41093,32.866549,-117.254049,-29.441818,-2455684.098467,-4767177.623794,3441520.844387,5.103862
149246332168,155051257000,1421434420802879488,155051257000,802883000,25,1,20,18,53,26,803,16,24.494999,102.181007,0.854211,2.118888,3.720441,0.323693,-9.707568,0.499386,25,1,20,18,53,22,600,7,3,32.866479,-117.254057,-22.216000,-2455689.435111,-4767186.333445,3441518.133076,40.273464,16.235056,49.516537,-63.818428,1.970384,93.407402,0.623975,-0.374640,-0.373051,0.575441,133,32.866549,-117.254049,-29.442922,-2455684.099339,-4767177.623102,3441520.842687,5.108010
149271613427,155076257000,1421434420827879680,155076257000,827883000,25,1,20,18,53,26,828,0,24.500000,102.181007,0.852612,2.121272,3.720637,0.342594,-9.763581,0.578305,25,1,20,18,53,22,600,7,3,32.866479,-117.254057,-22.216000,-2455689.435111,-4767186.333445,3441518.133076,40.273464,16.235056,49.516537,-63.837746,1.977618,93.427773,0.624037,-0.374774,-0.373120,0.575243,133,32.866549,-117.254049,-29.444044,-2455684.100234,-4767177.622464,3441520.840862,5.112171
149296011038,155101257000,1421434420852879872,155101257000,852883000,25,1,20,18,53,26,853,16,24.500000,102.181007,0.852615,2.121514,3.720633,0.292970,-9.885156,0.606418,25,1,20,18,53,22,800,7,3,32.866479,-117.254057,-22.202000,-2455689.455111,-4767186.323445,3441518.153076,40.188721,16.113956,49.462608,-63.858154,1.979472,93.449257,0.624084,-0.374946,-0.373162,0.575053,32901,32.866550,-117.254049,-29.295759,-2455684.111912,-4767177.716051,3441520.977061,5.087570
149321434316,155126257000,1421434420877879552,155126257000,877883000,25,1,20,18,53,26,878,16,24.500000,102.181007,0.852142,2.120548,3.720889,0.262935,-9.964598,0.663458,25,1,20,18,53,22,800,7,3,32.866479,-117.254057,-22.202000,-2455689.455111,-4767186.323445,3441518.153076,40.188721,16.113956,49.462608,-63.873379,1.977895,93.461067,0.624088,-0.375075,-0.373191,0.574944,32901,32.866550,-117.254049,-29.296464,-2455684.112548,-4767177.715578,3441520.975961,5.091556
149346728779,155151257000,1421434420902879744,155151257000,902883000,25,1,20,18,53,26,903,16,24.484997,102.177002,0.852376,2.120061,3.719709,0.289824,-9.769301,0.598232,25,1,20,18,53,22,800,7,3,32.866479,-117.254057,-22.202000,-2455689.455111,-4767186.323445,3441518.153076,40.188721,16.113956,49.462608,-63.881042,1.973276,93.459808,0.624043,-0.375136,-0.373209,0.574942,133,32.866550,-117.254049,-29.297200,-2455684.113211,-4767177.715144,3441520.974733,5.095555
149371384464,155176257000,1421434420927879680,155176257000,927883000,25,1,20,18,53,26,928,0,24.500000,102.181007,0.853297,2.120568,3.721364,0.363696,-9.748610,0.570112,25,1,20,18,53,22,800,7,3,32.866479,-117.254057,-22.202000,-2455689.455111,-4767186.323445,3441518.153076,40.188721,16.113956,49.462608,-63.880692,1.967613,93.461479,0.624035,-0.375169,-0.373172,0.574954,133,32.866550,-117.254049,-29.297845,-2455684.113978,-4767177.714687,3441520.973630,5.099566
149395910927,155201257000,1421434420952879616,155201257000,952883000,25,1,20,18,53,26,953,16,24.500000,102.181007,0.853296,2.120084,3.720898,0.407625,-9.819268,0.624272,25,1,20,18,53,22,800,7,3,32.866479,-117.254057,-22.202000,-2455689.455111,-4767186.323445,3441518.153076,40.188721,16.113956,49.462608,-63.878124,1.955777,93.459518,0.623997,-0.375209,-0.373102,0.575014,133,32.866550,-117.254049,-29.298497,-2455684.114841,-4767177.714259,3441520.972406,5.103590
149421073724,155226257000,1421434420977879808,155226257000,977883000,25,1,20,18,53,26,978,16,24.500000,102.181007,0.852156,2.121747,3.720393,0.342136,-9.865497,0.571187,25,1,20,18,53,22,800,7,3,32.866479,-117.254057,-22.202000,-2455689.455111,-4767186.323445,3441518.153076,40.188721,16.113956,49.462608,-63.886143,1.937698,93.449692,0.623866,-0.375314,-0.373078,0.575103,32901,32.866550,-117.254049,-29.299108,-2455684.115711,-4767177.713985,3441520.971039,5.107626
149446535075,155251257000,1421434421002879744,155251257000,2896000,25,1,20,18,53,27,3,16,24.480000,102.177002,0.853543,2.121036,3.719454,0.383940,-9.788381,0.588484,25,1,20,18,53,22,800,7,3,32.866479,-117.254057,-22.202000,-2455689.455111,-4767186.323445,3441518.153076,40.188721,16.113956,49.462608,-63.887367,1.912306,93.446480,0.623768,-0.375440,-0.372959,0.575204,32901,32.866550,-117.254049,-29.299695,-2455684.116571,-4767177.713701,3441520.969740,5.111676
149471035612,155276257000,1421434421027879680,155276257000,27896000,25,1,20,18,53,27,28,0,24.500000,102.194008,0.853322,2.121751,3.718967,0.338591,-9.743085,0.543881,25,1,20,18,53,22,800,7,3,32.866479,-117.254057,-22.202000,-2455689.455111,-4767186.323445,3441518.153076,40.188721,16.113956,49.462608,-63.887852,1.897775,93.449966,0.623739,-0.375529,-0.372873,0.575234,20613,32.866550,-117.254049,-29.300290,-2455684.117518,-4767177.713487,3441520.968265,5.115737
149497642612,155301257000,1421434421052882176,155301257000,52896000,25,1,20,18,53,27,53,16,24.500000,102.194008,0.854242,2.121529,3.719684,0.274169,-9.789927,0.624154,25,1,20,18,53,23,0,7,3,32.866480,-117.254057,-22.032000,-2455689.485111,-4767186.413445,3441518.323076,40.110195,15.998699,49.410194,-63.894791,1.888811,93.461151,0.623745,-0.375649,-0.372823,0.575181,20613,32.866550,-117.254048,-29.164068,-2455684.068556,-4767177.832760,3441521.089874,5.088517
149521468464,155326257000,1421434421077882368,155326257000,77896000,25,1,20,18,53,27,78,16,24.500000,102.169006,0.854696,2.120816,3.719934,0.240110,-9.822046,0.571308,25,1,20,18,53,23,0,7,3,32.866480,-117.254057,-22.032000,-2455689.485111,-4767186.413445,3441518.323076,40.110195,15.998699,49.410194,-63.904392,1.889680,93.471497,0.623768,-0.375731,-0.372842,0.575091,63621,32.866550,-117.254048,-29.164388,-2455684.068569,-4767177.832924,3441521.089049,5.092390
149547007705,155351257000,1421434421102882304,155351257000,102896000,25,1,20,18,53,27,103,16,24.500000,102.181007,0.854017,2.121759,3.718729,0.315667,-9.853209,0.612001,25,1,20,18,53,23,0,7,3,32.866480,-117.254057,-22.032000,-2455689.485111,-4767186.413445,3441518.323076,40.110195,15.998699,49.410194,-63.909737,1.892462,93.480087,0.623802,-0.375773,-0.372855,0.575017,63621,32.866550,-117.254048,-29.164756,-2455684.068672,-4767177.833107,3441521.088047,5.096274
149571208038,155376257000,1421434421127882240,155376257000,127896000,25,1,20,18,53,27,128,0,24.500000,102.181007,0.853299,2.120566,3.721126,0.352414,-9.863820,0.641572,25,1,20,18,53,23,0,7,3,32.866480,-117.254057,-22.032000,-2455689.485111,-4767186.413445,3441518.323076,40.110195,15.998699,49.410194,-63.904312,1.896038,93.480026,0.623830,-0.375725,-0.372847,0.575023,6277,32.866550,-117.254048,-29.164901,-2455684.068938,-4767177.833402,3441521.087186,5.100170
149597470261,155401257000,1421434421152882432,155401257000,152896000,25,1,20,18,53,27,153,16,24.500000,102.181007,0.853315,2.121519,3.719922,0.368087,-9.768784,0.596594,25,1,20,18,53,23,0,7,3,32.866480,-117.254057,-22.032000,-2455689.485111,-4767186.413445,3441518.323076,40.110195,15.998699,49.410194,-63.893272,1.897994,93.468735,0.623816,-0.375618,-0.372839,0.575113,6277,32.866550,-117.254048,-29.165144,-2455684.069104,-4767177.833690,3441521.086223,5.104078
149622734372,155426257000,1421434421177882112,155426257000,177896000,25,1,20,18,53,27,178,16,24.500000,102.194008,0.853776,2.122502,3.721805,0.358281,-9.679190,0.617961,25,1,20,18,53,23,0,7,3,32.866480,-117.254057,-22.032000,-2455689.485111,-4767186.413445,3441518.323076,40.110195,15.998699,49.410194,-63.885616,1.896851,93.457848,0.623783,-0.375547,-0.372831,0.575201,41093,32.866550,-117.254048,-29.165369,-2455684.069273,-4767177.834063,3441521.085177,5.107996
149646968186,155451257000,1421434421202882304,155451257000,202896000,25,1,20,18,53,27,203,16,24.500000,102.169006,0.852849,2.121271,3.719926,0.370655,-9.658361,0.579394,25,1,20,18,53,23,0,7,3,32.866480,-117.254057,-22.032000,-2455689.485111,-4767186.413445,3441518.323076,40.110195,15.998699,49.410194,-63.875919,1.895619,93.449043,0.623767,-0.375472,-0.372804,0.575285,41093,32.866550,-117.254048,-29.165564,-2455684.069441,-4767177.834512,3441521.084080,5.111927
149671588723,155476257000,1421434421227882496,155476257000,227896000,25,1,20,18,53,27,228,0,24.500000,102.181007,0.852384,2.121758,3.721344,0.360106,-9.715947,0.610989,25,1,20,18,53,23,0,7,3,32.866480,-117.254057,-22.032000,-2455689.485111,-4767186.413445,3441518.323076,40.110195,15.998699,49.410194,-63.868912,1.884905,93.455238,0.623788,-0.375509,-0.372692,0.575311,133,32.866550,-117.254048,-29.165986,-2455684.069587,-4767177.834867,3441521.082710,5.115869
149697043909,155501257000,1421434421252882176,155501257000,252896000,25,1,20,18,53,27,253,16,24.500000,102.181007,0.851683,2.120784,3.720886,0.268865,-9.833872,0.619824,25,1,20,18,53,23,200,7,3,32.866480,-117.254057,-21.953000,-2455689.505111,-4767186.433445,3441518.423076,40.035255,15.887127,49.359962,-63.881874,1.868651,93.470604,0.623772,-0.375713,-0.372620,0.575241,133,32.866551,-117.254048,-29.064242,-2455684.097705,-4767177.870295,3441521.201517,5.098433
149722488501,155526257000,1421434421277882368,155526257000,277896000,25,1,20,18,53,27,278,16,24.505001,102.198006,0.854466,2.120814,3.719934,0.244368,-9.888965,0.669528,25,1,20,18,53,23,200,7,3,32.866480,-117.254057,-21.953000,-2455689.505111,-4767186.433445,3441518.423076,40.035255,15.887127,49.359962,-63.884995,1.859147,93.488861,0.623825,-0.375838,-0.372525,0.575164,32901,32.866551,-117.254048,-29.064391,-2455684.097837,-4767177.870479,3441521.200896,5.102272
149747348483,155551257000,1421434421302882304,155551257000,302896000,25,1,20,18,53,27,303,16,24.484997,102.165009,0.854703,2.120810,3.718984,0.338171,-9.814786,0.639761,25,1,20,18,53,23,200,7,3,32.866480,-117.254057,-21.953000,-2455689.505111,-4767186.433445,3441518.423076,40.035255,15.887127,49.359962,-63.865463,1.865116,93.495079,0.623938,-0.375721,-0.372438,0.575174,32901,32.866551,-117.254048,-29.064352,-2455684.098237,-4767177.870725,3441521.200347,5.106122
149771754797,155576257000,1421434421327882240,155576257000,327896000,25,1,20,18,53,27,328,0,24.500000,102.181007,0.854013,2.121282,3.718977,0.391340,-9.767350,0.587760,25,1,20,18,53,23,200,7,3,32.866480,-117.254057,-21.953000,-2455689.505111,-4767186.433445,3441518.423076,40.035255,15.887127,49.359962,-63.843441,1.883959,93.501862,0.624102,-0.375527,-0.372406,0.575143,133,32.866551,-117.254048,-29.064441,-2455684.098508,-4767177.870944,3441521.199688,5.109982
149797067353,155601257000,1421434421352882432,155601257000,352896000,25,1,20,18,53,27,353,16,24.500000,102.181007,0.853790,2.122001,3.718966,0.396511,-9.762335,0.599121,25,1,20,18,53,23,200,7,3,32.866480,-117.254057,-21.953000,-2455689.505111,-4767186.433445,3441518.423076,40.035255,15.887127,49.359962,-63.828987,1.903090,93.519646,0.624298,-0.375408,-0.372377,0.575028,133,32.866551,-117.254048,-29.064532,-2455684.098794,-4767177.871196,3441521.198972,5.113854
149822433594,155626257000,1421434421377882368,155626257000,377896000,25,1,20,18,53,27,378,16,24.500000,102.181007,0.852612,2.120554,3.720417,0.316343,-9.777868,0.596720,25,1,20,18,53,23,200,7,3,32.866480,-117.254057,-21.953000,-2455689.505111,-4767186.433445,3441518.423076,40.035255,15.887127,49.359962,-63.813431,1.914729,93.541817,0.624496,-0.375335,-0.372289,0.574917,32901,32.866551,-117.254048,-29.064560,-2455684.099124,-4767177.871542,3441521.198211,5.117738
149846689686,155651257000,1421434421402882304,155651257000,402896000,25,1,20,18,53,27,403,16,24.494999,102.194008,0.854947,2.121775,3.718732,0.316801,-9.769846,0.587750,25,1,20,18,53,23,200,7,3,32.866480,-117.254057,-21.953000,-2455689.505111,-4767186.433445,3441518.423076,40.035255,15.887127,49.359962,-63.789577,1.924563,93.565346,0.624722,-0.375231,-0.372145,0.574833,32901,32.866551,-117.254048,-29.064596,-2455684.099513,-4767177.871904,3441521.197369,5.121633
149871913353,155676257000,1421434421427882240,155676257000,427896000,25,1,20,18,53,27,428,0,24.500000,102.169006,0.852389,2.121758,3.720872,0.360438,-9.781415,0.673449,25,1,20,18,53,23,200,7,3,32.866480,-117.254057,-21.953000,-2455689.505111,-4767186.433445,3441518.423076,40.035255,15.887127,49.359962,-63.768253,1.934035,93.585144,0.624920,-0.375131,-0.372023,0.574761,133,32.866551,-117.254048,-29.064613,-2455684.099938,-4767177.872294,3441521.196502,5.125540
149897092538,155701257000,1421434421452882176,155701257000,452896000,25,1,20,18,53,27,453,16,24.500000,102.181007,0.852390,2.122000,3.721105,0.340939,-9.740136,0.618240,25,1,20,18,53,23,400,7,3,32.866481,-117.254058,-21.834000,-2455689.555111,-4767186.493445,3441518.533076,40.000744,15.807412,49.314846,-63.749554,1.938173,93.597099,0.625054,-0.375046,-0.371913,0.574742,133,32.866551,-117.254048,-28.921959,-2455684.115888,-4767177.957529,3441521.330786,5.103707
149922432446,155726257000,1421434421477882368,155726257000,477896000,25,1,20,18,53,27,478,16,24.500000,102.181007,0.852393,2.121996,3.720629,0.370277,-9.751965,0.605778,25,1,20,18,53,23,400,7,3,32.866481,-117.254058,-21.834000,-2455689.555111,-4767186.493445,3441518.533076,40.000744,15.807412,49.314846,-63.751152,1.933411,93.611359,0.625106,-0.375126,-0.371849,0.574676,53381,32.866551,-117.254048,-28.922530,-2455684.118811,-4767177.955027,3441521.331105,5.107446
149946705834,155751257000,1421434421502882304,155751257000,502896000,25,1,20,18,53,27,503,16,24.500000,102.181007,0.853323,2.121759,3.719446,0.281174,-9.869763,0.634387,25,1,20,18,53,23,400,7,3,32.866481,-117.254058,-21.834000,-2455689.555111,-4767186.493445,3441518.533076,40.000744,15.807412,49.314846,-63.777824,1.913302,93.631760,0.625059,-0.375440,-0.371808,0.574547,53381,32.866551,-117.254048,-28.922298,-2455684.118944,-4767177.955508,3441521.330776,5.111228
149971974890,155776257000,1421434421527882240,155776257000,527896000,25,1,20,18,53,27,528,0,24.500000,102.169006,0.854020,2.122498,3.720383,0.238487,-9.903685,0.660870,25,1,20,18,53,23,400,7,3,32.866481,-117.254058,-21.834000,-2455689.555111,-4767186.493445,3441518.533076,40.000744,15.807412,49.314846,-63.807201,1.881726,93.649536,0.624955,-0.375820,-0.371728,0.574464,53381,32.866551,-117.254048,-28.922068,-2455684.119092,-4767177.955986,3441521.330438,5.115022
149997202334,155801257000,1421434421552882176,155801257000,552896000,25,1,20,18,53,27,553,16,24.500000,102.181007,0.853077,2.121049,3.721122,0.230957,-9.797221,0.744559,25,1,20,18,53,23,400,7,3,32.866481,-117.254058,-21.834000,-2455689.555111,-4767186.493445,3441518.533076,40.000744,15.807412,49.314846,-63.824917,1.856869,93.659630,0.624871,-0.376077,-0.371651,0.574437,2181,32.866551,-117.254048,-28.921796,-2455684.119285,-4767177.956488,3441521.330112,5.118826
150022397945,155826257000,1421434421577882368,155826257000,577896000,25,1,20,18,53,27,578,16,24.500000,102.194008,0.854485,2.122258,3.719675,0.294823,-9.698167,0.677990,25,1,20,18,53,23,400,7,3,32.866481,-117.254058,-21.834000,-2455689.555111,-4767186.493445,3441518.533076,40.000744,15.807412,49.314846,-63.826694,1.842985,93.664261,0.624846,-0.376173,-0.371570,0.574454,2181,32.866551,-117.254048,-28.921525,-2455684.119431,-4767177.956949,3441521.329874,5.122643
150046791871,155851257000,1421434421602882304,155851257000,602896000,25,1,20,18,53,27,603,16,24.507502,102.173004,0.853316,2.122015,3.721343,0.353891,-9.747942,0.666612,25,1,20,18,53,23,400,7,3,32.866481,-117.254058,-21.834000,-2455689.555111,-4767186.493445,3441518.533076,40.000744,15.807412,49.314846,-63.834755,1.838982,93.674965,0.624861,-0.376272,-0.371554,0.574383,41093,32.866551,-117.254048,-28.921149,-2455684.119782,-4767177.957480,3441521.329586,5.126471
150072096371,155876257000,1421434421627882240,155876257000,627896000,25,1,20,18,53,27,628,0,24.500000,102.181007,0.854039,2.122958,3.717763,0.399592,-9.833246,0.635461,25,1,20,18,53,23,400,7,3,32.866481,-117.254058,-21.834000,-2455689.555111,-4767186.493445,3441518.533076,40.000744,15.807412,49.314846,-63.869442,1.836677,93.690979,0.624820,-0.376525,-0.371663,0.574191,41093,32.866551,-117.254048,-28.920848,-2455684.120019,-4767177.958056,3441521.329180,5.130310
150097441668,155901257000,1421434421652882432,155901257000,652896000,25,1,20,18,53,27,653,16,24.500000,102.181007,0.854033,2.122968,3.718950,0.329074,-9.847169,0.675392,25,1,20,18,53,23,600,7,3,32.866480,-117.254058,-21.817000,-2455689.575111,-4767186.523445,3441518.513076,39.972340,15.733678,49.299461,-63.904892,1.821585,93.709618,0.624751,-0.376856,-0.371698,0.574027,20613,32.866552,-117.254048,-28.750172,-2455684.181961,-4767178.070212,3441521.445463,5.108410
150122031742,155926257000,1421434421677882112,155926257000,677896000,25,1,20,18,53,27,678,16,24.489998,102.190002,0.854489,2.122498,3.719434,0.326736,-9.958840,0.692415,25,1,20,18,53,23,600,7,3,32.866480,-117.254058,-21.817000,-2455689.575111,-4767186.523445,3441518.513076,39.972340,15.733678,49.299461,-63.917889,1.793410,93.724052,0.624694,-0.377117,-0.371565,0.574003,20613,32.866552,-117.254048,-28.749550,-2455684.182252,-4767178.070916,3441521.445435,5.112117
150146788131,155951257000,1421434421702882304,155951257000,702896000,25,1,20,18,53,27,703,16,24.500000,102.194008,0.853109,2.122710,3.718243,0.264774,-9.805252,0.622884,25,1,20,18,53,23,600,7,3,32.866480,-117.254058,-21.817000,-2455689.575111,-4767186.523445,3441518.513076,39.972340,15.733678,49.299461,-63.919159,1.767776,93.720390,0.624592,-0.377244,-0.371446,0.574107,51333,32.866552,-117.254048,-28.748761,-2455684.182642,-4767178.071741,3441521.445476,5.115834
150172354982,155976257000,1421434421727882496,155976257000,727896000,25,1,20,18,53,27,728,0,24.500000,102.181007,0.854967,2.123458,3.718467,0.272150,-9.800151,0.650122,25,1,20,18,53,23,600,7,3,32.866480,-117.254058,-21.817000,-2455689.575111,-4767186.523445,3441518.513076,39.972340,15.733678,49.299461,-63.917454,1.756698,93.716637,0.624545,-0.377279,-0.371391,0.574171,51333,32.866552,-117.254048,-28.747912,-2455684.183114,-4767178.072605,3441521.445517,5.119561
150196448131,156001257000,1421434421752882176,156001257000,752896000,25,1,20,18,53,27,753,16,24.500000,102.181007,0.854271,2.123206,3.718234,0.342850,-9.781001,0.644642,25,1,20,18,53,23,600,7,3,32.866480,-117.254058,-21.817000,-2455689.575111,-4767186.523445,3441518.513076,39.972340,15.733678,49.299461,-63.924557,1.765096,93.707199,0.624500,-0.377244,-0.371503,0.574171,18565,32.866552,-117.254048,-28.747023,-2455684.183572,-4767178.073579,3441521.445493,5.123298
150222156649,156026257000,1421434421777882368,156026257000,777896000,25,1,20,18,53,27,778,16,24.500000,102.194008,0.856117,2.122511,3.718246,0.295627,-9.769385,0.603891,25,1,20,18,53,23,600,7,3,32.866480,-117.254058,-21.817000,-2455689.575111,-4767186.523445,3441518.513076,39.972340,15.733678,49.299461,-63.949745,1.780302,93.697205,0.624414,-0.377271,-0.371743,0.574091,18565,32.866551,-117.254048,-28.746108,-2455684.184123,-4767178.074556,3441521.445443,5.127047
150246780890,156051257000,1421434421802882304,156051257000,802896000,25,1,20,18,53,27,803,16,24.500000,102.181007,0.855880,2.122029,3.718493,0.314799,-9.763152,0.691921,25,1,20,18,53,23,600,7,3,32.866480,-117.254058,-21.817000,-2455689.575111,-4767186.523445,3441518.513076,39.972340,15.733678,49.299461,-63.965633,1.785651,93.688522,0.624335,-0.377302,-0.371880,0.574069,51333,32.866551,-117.254048,-28.745289,-2455684.184665,-4767178.075543,3441521.445210,5.130805
150271590112,156076257000,1421434421827882240,156076257000,827896000,25,1,20,18,53,27,828,0,24.502501,102.186005,0.853792,2.122737,3.720381,0.208528,-9.767414,0.637408,25,1,20,18,53,23,600,7,3,32.866480,-117.254058,-21.817000,-2455689.575111,-4767186.523445,3441518.513076,39.972340,15.733678,49.299461,-63.982311,1.777555,93.679771,0.624211,-0.377406,-0.371949,0.574090,51333,32.866551,-117.254048,-28.744382,-2455684.185303,-4767178.076556,3441521.445035,5.134575
150297255834,156101257000,1421434421852882432,156101257000,852896000,25,1,20,18,53,27,853,16,24.500000,102.181007,0.853314,2.122023,3.722057,0.254556,-9.648986,0.630903,25,1,20,18,53,23,800,7,3,32.866480,-117.254058,-21.861000,-2455689.615111,-4767186.513445,3441518.413076,39.944538,15.662318,49.285072,-64.000107,1.758389,93.678085,0.624085,-0.377595,-0.371941,0.574108,18565,32.866552,-117.254048,-28.582425,-2455684.265036,-4767178.180724,3441521.543633,5.113155
150321607075,156126257000,1421434421877882368,156126257000,877896000,25,1,20,18,53,27,878,16,24.500000,102.181007,0.852156,2.121277,3.720883,0.247226,-9.719845,0.645027,25,1,20,18,53,23,800,7,3,32.866480,-117.254058,-21.861000,-2455689.615111,-4767186.513445,3441518.413076,39.944538,15.662318,49.285072,-64.003578,1.737759,93.688042,0.624060,-0.377752,-0.371815,0.574113,18565,32.866552,-117.254048,-28.581403,-2455684.265858,-4767178.181549,3441521.543798,5.116801
150346518130,156151257000,1421434421902882304,156151257000,902896000,25,1,20,18,53,27,903,16,24.500000,102.181007,0.854487,2.122260,3.719677,0.346450,-9.864676,0.737681,25,1,20,18,53,23,800,7,3,32.866480,-117.254058,-21.861000,-2455689.615111,-4767186.513445,3441518.413076,39.944538,15.662318,49.285072,-64.008102,1.721098,93.700119,0.624054,-0.377901,-0.371709,0.574090,51333,32.866552,-117.254048,-28.580284,-2455684.266863,-4767178.182463,3441521.543889,5.120457
150371493575,156176257000,1421434421927882240,156176257000,927896000,25,1,20,18,53,27,928,0,24.500000,102.169006,0.855192,2.123471,3.719655,0.372306,-9.926419,0.684151,25,1,20,18,53,23,800,7,3,32.866480,-117.254058,-21.861000,-2455689.615111,-4767186.513445,3441518.413076,39.944538,15.662318,49.285072,-64.029259,1.709288,93.701653,0.623956,-0.378082,-0.371747,0.574054,51333,32.866552,-117.254048,-28.579031,-2455684.267798,-4767178.183558,3441521.544030,5.124123
150396972612,156201257000,1421434421952882176,156201257000,952896000,25,1,20,18,53,27,953,16,24.500000,102.181007,0.855437,2.123211,3.716809,0.384430,-9.827794,0.635409,25,1,20,18,53,23,800,7,3,32.866480,-117.254058,-21.861000,-2455689.615111,-4767186.513445,3441518.413076,39.944538,15.662318,49.285072,-64.071419,1.703456,93.704422,0.623812,-0.378350,-0.371918,0.573922,51333,32.866552,-117.254048,-28.577770,-2455684.268745,-4767178.184678,3441521.544142,5.127799
150421793890,156226257000,1421434421977882368,156226257000,977896000,25,1,20,18,53,27,978,16,24.500000,102.169006,0.855652,2.122265,3.718251,0.296071,-9.756650,0.622353,25,1,20,18,53,23,800,7,3,32.866480,-117.254058,-21.861000,-2455689.615111,-4767186.513445,3441518.413076,39.944538,15.662318,49.285072,-64.113907,1.700191,93.712646,0.623703,-0.378625,-0.372086,0.573751,28805,32.866552,-117.254048,-28.576502,-2455684.269712,-4767178.185855,3441521.544172,5.131485
150447102686,156251257000,1421434422002882304,156251257000,2897000,25,1,20,18,53,28,3,16,24.500000,102.181007,0.857042,2.122526,3.718484,0.258751,-9.796518,0.626181,25,1,20,18,53,23,800,7,3,32.866480,-117.254058,-21.861000,-2455689.615111,-4767186.513445,3441518.413076,39.944538,15.662318,49.285072,-64.134651,1.702077,93.725502,0.623705,-0.378770,-0.372157,0.573607,28805,32.866552,-117.254048,-28.575280,-2455684.270689,-4767178.187026,3441521.544120,5.135181
150472075316,156276257000,1421434422027882240,156276257000,27897000,25,1,20,18,53,28,28,0,24.500000,102.181007,0.856345,2.122032,3.718018,0.265504,-9.803086,0.633997,25,1,20,18,53,23,800,7,3,32.866480,-117.254058,-21.861000,-2455689.615111,-4767186.513445,3441518.413076,39.944538,15.662318,49.285072,-64.148399,1.715945,93.738197,0.623766,-0.378815,-0.372258,0.573445,39045,32.866552,-117.254048,-28.574033,-2455684.271683,-4767178.188264,3441521.544011,5.138887
150496521167,156301257000,1421434422052884224,156301257000,52897000,25,1,20,18,53,28,53,16,24.500000,102.181007,0.857971,2.122777,3.718241,0.273204,-9.793554,0.660873,25,1,20,18,53,24,0,7,3,32.866479,-117.254058,-21.947000,-2455689.625111,-4767186.473445,3441518.303076,39.926888,15.594204,49.255222,-64.163521,1.729974,93.747200,0.623804,-0.378855,-0.372379,0.573299,39045,32.866552,-117.254048,-28.460904,-2455684.315186,-4767178.237558,3441521.653816,5.121387
150522066353,156326257000,1421434422077884160,156326257000,77897000,25,1,20,18,53,28,78,16,24.500000,102.181007,0.857740,2.123016,3.718474,0.264690,-9.763898,0.634030,25,1,20,18,53,24,0,7,3,32.866479,-117.254058,-21.947000,-2455689.625111,-4767186.473445,3441518.303076,39.926888,15.594204,49.255222,-64.173668,1.737583,93.750580,0.623811,-0.378882,-0.372459,0.573221,133,32.866552,-117.254048,-28.459403,-2455684.316415,-4767178.238571,3441521.654316,5.125001
150547136223,156351257000,1421434422102884352,156351257000,102897000,25,1,20,18,53,28,103,16,24.500000,102.181007,0.857511,2.122520,3.717057,0.329457,-9.771962,0.610775,25,1,20,18,53,24,0,7,3,32.866479,-117.254058,-21.947000,-2455689.625111,-4767186.473445,3441518.303076,39.926888,15.594204,49.255222,-64.183258,1.738675,93.753197,0.623796,-0.378937,-0.372505,0.573172,133,32.866552,-117.254048,-28.457871,-2455684.317806,-4767178.239613,3441521.654719,5.128624
150571753390,156376257000,1421434422127884032,156376257000,127897000,25,1,20,18,53,28,128,0,24.500000,102.181007,0.855173,2.121792,3.720159,0.298651,-9.795655,0.622209,25,1,20,18,53,24,0,7,3,32.866479,-117.254058,-21.947000,-2455689.625111,-4767186.473445,3441518.303076,39.926888,15.594204,49.255222,-64.191628,1.729198,93.757294,0.623759,-0.379045,-0.372482,0.573155,32901,32.866552,-117.254048,-28.456424,-2455684.319088,-4767178.240682,3441521.655005,5.132256
150597042371,156401257000,1421434422152884224,156401257000,152897000,25,1,20,18,53,28,153,16,24.500000,102.181007,0.855647,2.122755,3.719666,0.252292,-9.749904,0.614284,25,1,20,18,53,24,0,7,3,32.866479,-117.254058,-21.947000,-2455689.625111,-4767186.473445,3441518.303076,39.926888,15.594204,49.255222,-64.194038,1.711599,93.750816,0.623664,-0.379127,-0.372422,0.573243,32901,32.866552,-117.254048,-28.454943,-2455684.320404,-4767178.241723,3441521.655370,5.135898
150621879575,156426257000,1421434422177884160,156426257000,177897000,25,1,20,18,53,28,178,16,24.500000,102.169006,0.855408,2.122275,3.720150,0.235006,-9.771380,0.655805,25,1,20,18,53,24,0,7,3,32.866479,-117.254058,-21.947000,-2455689.625111,-4767186.473445,3441518.303076,39.926888,15.594204,49.255222,-64.179337,1.694598,93.743675,0.623625,-0.379110,-0.372281,0.573389,133,32.866552,-117.254048,-28.453314,-2455684.321872,-4767178.242880,3441521.655739,5.139550
150646150815,156451257000,1421434422202884096,156451257000,202897000,25,1,20,18,53,28,203,16,24.500000,102.181007,0.855883,2.122753,3.718954,0.230372,-9.811460,0.570174,25,1,20,18,53,24,0,7,3,32.866479,-117.254058,-21.947000,-2455689.625111,-4767186.473445,3441518.303076,39.926888,15.594204,49.255222,-64.161041,1.692791,93.744766,0.623685,-0.379023,-0.372176,0.573449,133,32.866552,-117.254048,-28.452472,-2455684.325960,-4767178.241386,3441521.656448,5.143183
150671660797,156476257000,1421434422227884288,156476257000,227897000,25,1,20,18,53,28,228,0,24.500000,102.181007,0.857503,2.122775,3.718953,0.186332,-9.880389,0.551215,25,1,20,18,53,24,0,7,3,32.866479,-117.254058,-21.947000,-2455689.625111,-4767186.473445,3441518.303076,39.926888,15.594204,49.255222,-64.142998,1.701539,93.762688,0.623862,-0.378939,-0.372073,0.573379,32901,32.866552,-117.254048,-28.451004,-2455684.327447,-4767178.242479,3441521.656596,5.146855
150696843223,156501257000,1421434422252884224,156501257000,252897000,25,1,20,18,53,28,253,16,24.500000,102.181007,0.856565,2.122780,3.721092,0.189660,-9.926070,0.656481,25,1,20,18,53,24,200,7,3,32.866478,-117.254059,-22.011000,-2455689.635111,-4767186.443445,3441518.203076,39.912273,15.528666,49.225441,-64.094849,1.710632,93.790024,0.624186,-0.378719,-0.371791,0.573355,32901,32.866552,-117.254048,-28.372594,-2455684.359619,-4767178.293227,3441521.708455,5.126684
150722028871,156526257000,1421434422277884160,156526257000,277897000,25,1,20,18,53,28,278,16,24.500000,102.181007,0.857059,2.123228,3.716332,0.301900,-9.857983,0.687758,25,1,20,18,53,24,200,7,3,32.866478,-117.254059,-22.011000,-2455689.635111,-4767186.443445,3441518.203076,39.912273,15.528666,49.225441,-64.026665,1.721919,93.800766,0.624499,-0.378324,-0.371474,0.573479,133,32.866552,-117.254048,-28.370815,-2455684.361407,-4767178.294346,3441521.708926,5.130247
150746928889,156551257000,1421434422302884096,156551257000,302897000,25,1,20,18,53,28,303,16,24.510000,102.198006,0.856129,2.123222,3.717045,0.278162,-9.779322,0.652305,25,1,20,18,53,24,200,7,3,32.866478,-117.254059,-22.011000,-2455689.635111,-4767186.443445,3441518.203076,39.912273,15.528666,49.225441,-63.969883,1.740149,93.791161,0.624695,-0.377891,-0.371319,0.573652,133,32.866552,-117.254048,-28.368918,-2455684.363192,-4767178.295580,3441521.709457,5.133819
150771686612,156576257000,1421434422327884288,156576257000,327897000,25,1,20,18,53,28,328,0,24.500000,102.169006,0.854244,2.120808,3.718989,0.292347,-9.615973,0.640011,25,1,20,18,53,24,200,7,3,32.866478,-117.254059,-22.011000,-2455689.635111,-4767186.443445,3441518.203076,39.912273,15.528666,49.225441,-63.920124,1.760261,93.778122,0.624855,-0.377474,-0.371221,0.573815,133,32.866552,-117.254048,-28.367066,-2455684.365075,-4767178.296758,3441521.709915,5.137401
150796139464,156601257000,1421434422352884224,156601257000,352897000,25,1,20,18,53,28,353,16,24.504999,102.181007,0.854023,2.122250,3.719438,0.360350,-9.707290,0.678287,25,1,20,18,53,24,200,7,3,32.866478,-117.254059,-22.011000,-2455689.635111,-4767186.443445,3441518.203076,39.912273,15.528666,49.225441,-63.865250,1.771159,93.769295,0.625025,-0.377091,-0.371034,0.574004,32901,32.866552,-117.254048,-28.365334,-2455684.367008,-4767178.297885,3441521.710187,5.140992
150821577056,156626257000,1421434422377884160,156626257000,377897000,25,1,20,18,53,28,378,16,24.500000,102.181007,0.852630,2.121995,3.719918,0.403659,-9.820189,0.728381,25,1,20,18,53,24,200,7,3,32.866478,-117.254059,-22.011000,-2455689.635111,-4767186.443445,3441518.203076,39.912273,15.528666,49.225441,-63.811481,1.777044,93.750008,0.625123,-0.376705,-0.370859,0.574263,32901,32.866552,-117.254048,-28.363542,-2455684.368871,-4767178.299136,3441521.710447,5.144592
150846032075,156651257000,1421434422402884352,156651257000,402897000,25,1,20,18,53,28,403,16,24.500000,102.181007,0.852855,2.121763,3.720634,0.363685,-9.784811,0.630941,25,1,20,18,53,24,200,7,3,32.866478,-117.254059,-22.011000,-2455689.635111,-4767186.443445,3441518.203076,39.912273,15.528666,49.225441,-63.778542,1.785868,93.722618,0.625121,-0.376391,-0.370831,0.574488,133,32.866552,-117.254048,-28.361898,-2455684.370824,-4767178.300186,3441521.710646,5.148203
150871238186,156676257000,1421434422427884032,156676257000,427897000,25,1,20,18,53,28,428,0,24.500000,102.169006,0.854040,2.123200,3.717996,0.301056,-9.784529,0.577128,25,1,20,18,53,24,200,7,3,32.866478,-117.254059,-22.011000,-2455689.635111,-4767186.443445,3441518.203076,39.912273,15.528666,49.225441,-63.760941,1.791034,93.712097,0.625142,-0.376235,-0.370805,0.574585,133,32.866552,-117.254048,-28.360054,-2455684.372707,-4767178.301557,3441521.710824,5.151823
150897315352,156701257000,1421434422452884224,156701257000,452897000,25,1,20,18,53,28,453,16,24.500000,102.181007,0.854735,2.122965,3.717524,0.278352,-9.826093,0.616684,25,1,20,18,53,24,400,7,3,32.866478,-117.254059,-21.970000,-2455689.675111,-4767186.473445,3441518.213076,39.923622,15.465816,49.233429,-63.741650,1.782782,93.718872,0.625214,-0.376194,-0.370642,0.574639,41093,32.866552,-117.254048,-28.302029,-2455684.390500,-4767178.336232,3441521.757426,5.134722
150921734575,156726257000,1421434422477884416,156726257000,477897000,25,1,20,18,53,28,478,16,24.500000,102.169006,0.854722,2.122496,3.718958,0.262248,-9.827285,0.607545,25,1,20,18,53,24,400,7,3,32.866478,-117.254059,-21.970000,-2455689.675111,-4767186.473445,3441518.213076,39.923622,15.465816,49.233429,-63.713341,1.773562,93.735001,0.625360,-0.376139,-0.370398,0.574674,41093,32.866552,-117.254048,-28.300106,-2455684.392494,-4767178.337518,3441521.757786,5.138257
150948083260,156751257000,1421434422502884096,156751257000,502897000,25,1,20,18,53,28,503,16,24.502501,102.181007,0.854261,2.122488,3.718721,0.322542,-9.847208,0.670434,25,1,20,18,53,24,400,7,3,32.866478,-117.254059,-21.970000,-2455689.675111,-4767186.473445,3441518.213076,39.923622,15.465816,49.233429,-63.676880,1.775293,93.753250,0.625576,-0.375990,-0.370164,0.574686,133,32.866552,-117.254048,-28.298157,-2455684.394578,-4767178.338824,3441521.758102,5.141799
150971582982,156776257000,1421434422527884288,156776257000,527897000,25,1,20,18,53,28,528,0,24.500000,102.181007,0.852880,2.122944,3.718000,0.312098,-9.844261,0.746394,25,1,20,18,53,24,400,7,3,32.866478,-117.254059,-21.970000,-2455689.675111,-4767186.473445,3441518.213076,39.923622,15.465816,49.233429,-63.648113,1.794085,93.757774,0.625751,-0.375751,-0.370106,0.574690,133,32.866552,-117.254048,-28.296200,-2455684.396718,-4767178.340133,3441521.758391,5.145351
150997058982,156801257000,1421434422552884224,156801257000,552897000,25,1,20,18,53,28,553,16,24.504999,102.181007,0.851707,2.122952,3.720851,0.337397,-9.860417,0.677372,25,1,20,18,53,24,400,7,3,32.866478,-117.254059,-21.970000,-2455689.675111,-4767186.473445,3441518.213076,39.923622,15.465816,49.233429,-63.616589,1.833710,93.749374,0.625933,-0.375349,-0.370188,0.574701,32901,32.866552,-117.254049,-28.293962,-2455684.398769,-4767178.341690,3441521.758919,5.148913
151022114519,156826257000,1421434422577884160,156826257000,577897000,25,1,20,18,53,28,578,16,24.500000,102.181007,0.850760,2.121264,3.721832,0.448397,-9.812779,0.674526,25,1,20,18,53,24,400,7,3,32.866478,-117.254059,-21.970000,-2455689.675111,-4767186.473445,3441518.213076,39.923622,15.465816,49.233429,-63.586327,1.885807,93.736084,0.626125,-0.374874,-0.370359,0.574693,32901,32.866552,-117.254049,-28.291821,-2455684.400890,-4767178.343218,3441521.759260,5.152485
151048212834,156851257000,1421434422602884352,156851257000,602897000,25,1,20,18,53,28,603,16,24.502501,102.181007,0.852635,2.121012,3.717321,0.455789,-9.861486,0.691828,25,1,20,18,53,24,400,7,3,32.866478,-117.254059,-21.970000,-2455689.675111,-4767186.473445,3441518.213076,39.923622,15.465816,49.233429,-63.575779,1.914906,93.725830,0.626197,-0.374634,-0.370495,0.574683,133,32.866552,-117.254049,-28.290017,-2455684.402986,-4767178.344579,3441521.759225,5.156066
151071569982,156876257000,1421434422627884032,156876257000,627897000,25,1,20,18,53,28,628,0,24.500000,102.181007,0.852174,2.121977,3.718492,0.386460,-9.777289,0.711936,25,1,20,18,53,24,400,7,3,32.866478,-117.254059,-21.970000,-2455689.675111,-4767186.473445,3441518.213076,39.923622,15.465816,49.233429,-63.575657,1.921306,93.714447,0.626160,-0.374564,-0.370566,0.574723,133,32.866552,-117.254049,-28.287828,-2455684.405042,-4767178.346319,3441521.759408,5.159657
151097084611,156901257000,1421434422652884224,156901257000,652897000,25,1,20,18,53,28,653,16,24.510000,102.186005,0.853555,2.120790,3.718038,0.388950,-9.652664,0.654776,25,1,20,18,53,24,600,7,3,32.866478,-117.254059,-21.982000,-2455689.695111,-4767186.473445,3441518.183076,39.937130,15.405527,49.244286,-63.586102,1.919270,93.702843,0.626061,-0.374593,-0.370646,0.574760,32901,32.866552,-117.254049,-28.264713,-2455684.415938,-4767178.356800,3441521.779857,5.148112
151122022741,156926257000,1421434422677884160,156926257000,677897000,25,1,20,18,53,28,678,16,24.505001,102.186005,0.853112,2.122459,3.717058,0.380828,-9.669044,0.714230,25,1,20,18,53,24,600,7,3,32.866478,-117.254059,-21.982000,-2455689.695111,-4767186.473445,3441518.183076,39.937130,15.405527,49.244286,-63.614971,1.912861,93.697815,0.625922,-0.374768,-0.370773,0.574716,32901,32.866552,-117.254049,-28.262493,-2455684.417994,-4767178.358455,3441521.780213,5.151657
151146959963,156951257000,1421434422702884096,156951257000,702897000,25,1,20,18,53,28,703,16,24.507502,102.173004,0.853570,2.122473,3.718008,0.357443,-9.739216,0.706685,25,1,20,18,53,24,600,7,3,32.866478,-117.254059,-21.982000,-2455689.695111,-4767186.473445,3441518.183076,39.937130,15.405527,49.244286,-63.664661,1.902277,93.690018,0.625688,-0.375068,-0.370991,0.574634,133,32.866552,-117.254049,-28.260323,-2455684.419978,-4767178.360083,3441521.780566,5.155212
151171232815,156976257000,1421434422727884288,156976257000,727897000,25,1,20,18,53,28,728,0,24.507502,102.181007,0.850992,2.120778,3.720890,0.327854,-9.763044,0.732772,25,1,20,18,53,24,600,7,3,32.866478,-117.254059,-21.982000,-2455689.695111,-4767186.473445,3441518.183076,39.937130,15.405527,49.244286,-63.738968,1.893589,93.681198,0.625374,-0.375490,-0.371346,0.574472,133,32.866552,-117.254049,-28.258211,-2455684.421915,-4767178.361773,3441521.780758,5.158777
151197603593,157001257000,1421434422752884224,157001257000,752897000,25,1,20,18,53,28,753,16,24.500000,102.181007,0.853311,2.121048,3.720647,0.300790,-9.820099,0.738462,25,1,20,18,53,24,600,7,3,32.866478,-117.254059,-21.982000,-2455689.695111,-4767186.473445,3441518.183076,39.937130,15.405527,49.244286,-63.813442,1.884610,93.673012,0.625061,-0.375916,-0.371698,0.574306,53381,32.866552,-117.254049,-28.256077,-2455684.423858,-4767178.363464,3441521.780986,5.162352
151222250482,157026257000,1421434422777884160,157026257000,777897000,25,1,20,18,53,28,778,16,24.504999,102.181007,0.853089,2.121763,3.720160,0.339639,-9.813737,0.756640,25,1,20,18,53,24,600,7,3,32.866478,-117.254059,-21.982000,-2455689.695111,-4767186.473445,3441518.183076,39.937130,15.405527,49.244286,-63.871269,1.872770,93.667976,0.624810,-0.376275,-0.371941,0.574186,53381,32.866552,-117.254049,-28.253909,-2455684.425798,-4767178.365180,3441521.781248,5.165937
151246899500,157051257000,1421434422802884096,157051257000,802897000,25,1,20,18,53,28,803,16,24.502501,102.181007,0.852832,2.120093,3.722090,0.415563,-9.726038,0.681953,25,1,20,18,53,24,600,7,3,32.866478,-117.254059,-21.982000,-2455689.695111,-4767186.473445,3441518.183076,39.937130,15.405527,49.244286,-63.924046,1.874549,93.667908,0.624641,-0.376554,-0.372215,0.574009,53381,32.866552,-117.254049,-28.251734,-2455684.427737,-4767178.366977,3441521.781408,5.169533
151272625685,157076257000,1421434422827884288,157076257000,827897000,25,1,20,18,53,28,828,0,24.500000,102.169006,0.855177,2.121786,3.719447,0.421230,-9.653414,0.587034,25,1,20,18,53,24,600,7,3,32.866478,-117.254059,-21.982000,-2455689.695111,-4767186.473445,3441518.183076,39.937130,15.405527,49.244286,-63.984676,1.890951,93.681519,0.624561,-0.376844,-0.372561,0.573681,133,32.866552,-117.254049,-28.249568,-2455684.429614,-4767178.368824,3441521.781527,5.173139
151296877334,157101257000,1421434422852884224,157101257000,852897000,25,1,20,18,53,28,853,16,24.505001,102.186005,0.854501,2.123456,3.718942,0.402219,-9.775113,0.636160,25,1,20,18,53,24,800,7,3,32.866477,-117.254059,-22.066000,-2455689.685111,-4767186.433445,3441518.093076,39.942146,15.345369,49.271564,-64.028870,1.917616,93.712631,0.624653,-0.377050,-0.372823,0.573276,133,32.866552,-117.254049,-28.226656,-2455684.439728,-4767178.383703,3441521.796106,5.158839
151321761741,157126257000,1421434422877884160,157126257000,877897000,25,1,20,18,53,28,878,16,24.505001,102.173004,0.854720,2.122503,3.719672,0.335525,-9.912502,0.652765,25,1,20,18,53,24,800,7,3,32.866477,-117.254059,-22.066000,-2455689.685111,-4767186.433445,3441518.093076,39.942146,15.345369,49.271564,-64.041061,1.954332,93.747314,0.624899,-0.377042,-0.372966,0.572920,41093,32.866552,-117.254049,-28.224416,-2455684.441633,-4767178.385444,3441521.796489,5.163092
151347592871,157151257000,1421434422902884352,157151257000,902897000,25,1,20,18,53,28,903,16,24.507502,102.186005,0.856570,2.121800,3.718733,0.380056,-9.993478,0.576266,25,1,20,18,53,24,800,7,3,32.866477,-117.254059,-22.066000,-2455689.685111,-4767186.433445,3441518.093076,39.942146,15.345369,49.271564,-64.048378,1.984621,93.779808,0.625130,-0.377032,-0.373057,0.572614,41093,32.866552,-117.254049,-28.222643,-2455684.443407,-4767178.386956,3441521.796418,5.166647
151372119037,157176257000,1421434422927884032,157176257000,927897000,25,1,20,18,53,28,928,0,24.510000,102.186005,0.853783,2.122020,3.720869,0.227225,-10.083401,0.610399,25,1,20,18,53,24,800,7,3,32.866477,-117.254059,-22.066000,-2455689.685111,-4767186.433445,3441518.093076,39.942146,15.345369,49.271564,-64.062950,2.009526,93.807816,0.625299,-0.377076,-0.373171,0.572327,133,32.866552,-117.254049,-28.220262,-2455684.445470,-4767178.389002,3441521.796527,5.170211
151396900908,157201257000,1421434422952884224,157201257000,952897000,25,1,20,18,53,28,953,16,24.500000,102.194008,0.853547,2.121049,3.720174,0.141443,-9.986700,0.658400,25,1,20,18,53,24,800,7,3,32.866477,-117.254059,-22.066000,-2455689.685111,-4767186.433445,3441518.093076,39.942146,15.345369,49.271564,-64.059364,2.047807,93.824356,0.625511,-0.376914,-0.373304,0.572116,133,32.866552,-117.254049,-28.217252,-2455684.447861,-4767178.391507,3441521.796933,5.173785
151422398834,157226257000,1421434422977884416,157226257000,977897000,25,1,20,18,53,28,978,16,24.504999,102.181007,0.853348,2.123679,3.718702,0.199699,-9.775027,0.618253,25,1,20,18,53,24,800,7,3,32.866477,-117.254059,-22.066000,-2455689.685111,-4767186.433445,3441518.093076,39.942146,15.345369,49.271564,-64.034508,2.105157,93.824738,0.625770,-0.376486,-0.373485,0.571996,32901,32.866552,-117.254049,-28.214811,-2455684.450202,-4767178.393527,3441521.796991,5.177367
151447279556,157251257000,1421434423002884096,157251257000,2898000,25,1,20,18,53,29,3,16,24.507502,102.198006,0.853785,2.121529,3.719690,0.290561,-9.627798,0.620668,25,1,20,18,53,24,800,7,3,32.866477,-117.254059,-22.066000,-2455689.685111,-4767186.433445,3441518.093076,39.942146,15.345369,49.271564,-64.008202,2.164144,93.818886,0.626007,-0.376022,-0.373688,0.571909,32901,32.866552,-117.254049,-28.212123,-2455684.452722,-4767178.395673,3441521.797206,5.180960
151471605833,157276257000,1421434423027884288,157276257000,27898000,25,1,20,18,53,29,28,0,24.510000,102.186005,0.853587,2.123915,3.717747,0.355533,-9.556984,0.621554,25,1,20,18,53,24,800,7,3,32.866477,-117.254059,-22.066000,-2455689.685111,-4767186.433445,3441518.093076,39.942146,15.345369,49.271564,-63.998840,2.225782,93.811737,0.626191,-0.375632,-0.373994,0.571764,133,32.866552,-117.254049,-28.209516,-2455684.455303,-4767178.397763,3441521.797307,5.184564
151497099871,157301257000,1421434423052885760,157301257000,52898000,25,1,20,18,53,29,53,16,24.504999,102.181007,0.853570,2.122479,3.718485,0.404457,-9.640744,0.660898,25,1,20,18,53,25,0,7,3,32.866481,-117.254059,-21.489000,-2455689.825111,-4767186.653445,3441518.753076,39.946785,15.286025,49.301010,-64.013496,2.278176,93.803078,0.626260,-0.375415,-0.374375,0.571582,133,32.866552,-117.254049,-28.162988,-2455684.489449,-4767178.400830,3441521.854622,5.171496
151522531185,157326257000,1421434423077885952,157326257000,77898000,25,1,20,18,53,29,78,16,24.504999,102.169006,0.853113,2.122707,3.717769,0.441107,-9.671975,0.684958,25,1,20,18,53,25,0,7,3,32.866481,-117.254059,-21.489000,-2455689.825111,-4767186.653445,3441518.753076,39.946785,15.286025,49.301010,-64.028145,2.302087,93.790215,0.626220,-0.375331,-0.374618,0.571521,32901,32.866552,-117.254049,-28.161134,-2455684.491827,-4767178.401800,3441521.855016,5.175759
151546583185,157351257000,1421434423102885888,157351257000,102898000,25,1,20,18,53,29,103,16,24.510000,102.186005,0.854265,2.122489,3.718486,0.366079,-9.727930,0.699534,25,1,20,18,53,25,0,7,3,32.866481,-117.254059,-21.489000,-2455689.825111,-4767186.653445,3441518.753076,39.946785,15.286025,49.301010,-64.039307,2.286203,93.771324,0.626041,-0.375411,-0.374651,0.571643,32901,32.866552,-117.254049,-28.158783,-2455684.494575,-4767178.403349,3441521.855271,5.179321
151572577630,157376257000,1421434423127885824,157376257000,127898000,25,1,20,18,53,29,128,0,24.507502,102.169006,0.852161,2.121274,3.720409,0.337772,-9.866664,0.742560,25,1,20,18,53,25,0,7,3,32.866481,-117.254059,-21.489000,-2455689.825111,-4767186.653445,3441518.753076,39.946785,15.286025,49.301010,-64.047287,2.249942,93.765564,0.625875,-0.375622,-0.374516,0.571774,133,32.866552,-117.254049,-28.156408,-2455684.497281,-4767178.404933,3441521.855549,5.182894
151596793259,157401257000,1421434423152886016,157401257000,152898000,25,1,20,18,53,29,153,16,24.500000,102.181007,0.853106,2.121745,3.717549,0.340158,-9.887382,0.691001,25,1,20,18,53,25,0,7,3,32.866481,-117.254059,-21.489000,-2455689.825111,-4767186.653445,3441518.753076,39.946785,15.286025,49.301010,-64.062782,2.219260,93.759422,0.625700,-0.375844,-0.374450,0.571864,133,32.866552,-117.254049,-28.153932,-2455684.500041,-4767178.406614,3441521.855843,5.186477
151622847593,157426257000,1421434423177885696,157426257000,177898000,25,1,20,18,53,29,178,16,24.510000,102.186005,0.853320,2.121041,3.719462,0.344270,-9.787390,0.642165,25,1,20,18,53,25,0,7,3,32.866481,-117.254059,-21.489000,-2455689.825111,-4767186.653445,3441518.753076,39.946785,15.286025,49.301010,-64.078110,2.204454,93.747002,0.625543,-0.375963,-0.374488,0.571933,53381,32.866552,-117.254049,-28.151441,-2455684.502788,-4767178.408300,3441521.856166,5.190070
151647227926,157451257000,1421434423202885888,157451257000,202898000,25,1,20,18,53,29,203,16,24.510000,102.186005,0.852852,2.121043,3.720413,0.423491,-9.779158,0.542787,25,1,20,18,53,25,0,7,3,32.866481,-117.254059,-21.489000,-2455689.825111,-4767186.653445,3441518.753076,39.946785,15.286025,49.301010,-64.069489,2.203431,93.736794,0.625517,-0.375887,-0.374473,0.572021,53381,32.866552,-117.254049,-28.148835,-2455684.505730,-4767178.410007,3441521.856533,5.193674
151672034352,157476257000,1421434423227886080,157476257000,227898000,25,1,20,18,53,29,228,0,24.507502,102.181007,0.853794,2.121275,3.717795,0.397870,-9.927405,0.539203,25,1,20,18,53,25,0,7,3,32.866481,-117.254059,-21.489000,-2455689.825111,-4767186.653445,3441518.753076,39.946785,15.286025,49.301010,-64.048294,2.212149,93.737846,0.625618,-0.375730,-0.374410,0.572054,2181,32.866552,-117.254049,-28.146296,-2455684.508602,-4767178.411834,3441521.856662,5.197288
151696673222,157501257000,1421434423252885760,157501257000,252898000,25,1,20,18,53,29,253,16,24.510000,102.186005,0.853566,2.122732,3.719908,0.408890,-9.978486,0.598823,25,1,20,18,53,25,200,7,3,32.866480,-117.254060,-21.760000,-2455689.785111,-4767186.523445,3441518.463076,39.992393,15.234681,49.403015,-64.008774,2.224579,93.740555,0.625799,-0.375460,-0.374270,0.572125,2181,32.866552,-117.254049,-28.153284,-2455684.512700,-4767178.434593,3441521.809568,5.187745
151721494037,157526257000,1421434423277885952,157526257000,277898000,25,1,20,18,53,29,278,16,24.504999,102.181007,0.853338,2.121745,3.717311,0.396938,-9.880632,0.590039,25,1,20,18,53,25,200,7,3,32.866480,-117.254060,-21.760000,-2455689.785111,-4767186.523445,3441518.463076,39.992393,15.234681,49.403015,-63.919571,2.236772,93.738075,0.626116,-0.374902,-0.373898,0.572387,41093,32.866552,-117.254049,-28.150591,-2455684.515674,-4767178.436810,3441521.809372,5.191328
151747138926,157551257000,1421434423302885888,157551257000,302898000,25,1,20,18,53,29,303,16,24.510000,102.186005,0.851928,2.120295,3.718763,0.399302,-9.778419,0.567698,25,1,20,18,53,25,200,7,3,32.866480,-117.254060,-21.760000,-2455689.785111,-4767186.523445,3441518.463076,39.992393,15.234681,49.403015,-63.785099,2.255048,93.735420,0.626598,-0.374065,-0.373333,0.572777,41093,32.866552,-117.254049,-28.147823,-2455684.518707,-4767178.439089,3441521.809186,5.194921
151771330778,157576257000,1421434423327885824,157576257000,327898000,25,1,20,18,53,29,328,0,24.510000,102.198006,0.849847,2.120507,3.718760,0.500226,-9.755739,0.595306,25,1,20,18,53,25,200,7,3,32.866480,-117.254060,-21.760000,-2455689.785111,-4767186.523445,3441518.463076,39.992393,15.234681,49.403015,-63.645016,2.284274,93.739243,0.627163,-0.373161,-0.372776,0.573111,41093,32.866552,-117.254049,-28.145052,-2455684.521796,-4767178.441410,3441521.808910,5.198523
151798383518,157601257000,1421434423352886016,157601257000,352898000,25,1,20,18,53,29,353,16,24.510000,102.186005,0.848919,2.121230,3.720411,0.489364,-9.742597,0.625447,25,1,20,18,53,25,200,7,3,32.866480,-117.254060,-21.760000,-2455689.785111,-4767186.523445,3441518.463076,39.992393,15.234681,49.403015,-63.535999,2.315607,93.749809,0.627665,-0.372437,-0.372364,0.573299,133,32.866552,-117.254049,-28.142302,-2455684.524908,-4767178.443799,3441521.808484,5.202135
151821575444,157626257000,1421434423377885696,157626257000,377898000,25,1,20,18,53,29,378,16,24.505001,102.186005,0.848694,2.120975,3.718990,0.401935,-9.778881,0.655853,25,1,20,18,53,25,200,7,3,32.866480,-117.254060,-21.760000,-2455689.785111,-4767186.523445,3441518.463076,39.992393,15.234681,49.403015,-63.467857,2.342072,93.754372,0.627990,-0.371943,-0.372150,0.573404,133,32.866552,-117.254049,-28.139532,-2455684.527992,-4767178.446234,3441521.808052,5.205757
151847255093,157651257000,1421434423402885888,157651257000,402898000,25,1,20,18,53,29,403,16,24.502501,102.181007,0.848449,2.120019,3.719959,0.292700,-9.803837,0.672315,25,1,20,18,53,25,200,7,3,32.866480,-117.254060,-21.760000,-2455689.785111,-4767186.523445,3441518.463076,39.992393,15.234681,49.403015,-63.425770,2.364412,93.742584,0.628135,-0.371559,-0.372097,0.573528,32901,32.866552,-117.254049,-28.136671,-2455684.531079,-4767178.448829,3441521.807564,5.209391
151871926704,157676257000,1421434423427885824,157676257000,427898000,25,1,20,18,53,29,428,0,24.510002,102.186005,0.848001,2.120478,3.718049,0.285707,-9.830160,0.741514,25,1,20,18,53,25,200,7,3,32.866480,-117.254060,-21.760000,-2455689.785111,-4767186.523445,3441518.463076,39.992393,15.234681,49.403015,-63.386814,2.392626,93.718681,0.628227,-0.371122,-0.372130,0.573688,32901,32.866552,-117.254049,-28.133941,-2455684.534360,-4767178.451244,3441521.806949,5.213034
151896344055,157701257000,1421434423452885760,157701257000,452898000,25,1,20,18,53,29,453,16,24.510000,102.173004,0.848911,2.120027,3.720196,0.344767,-9.741364,0.748181,25,1,20,18,53,25,400,7,3,32.866478,-117.254060,-22.176000,-2455689.725111,-4767186.243445,3441518.123076,40.029091,15.188396,49.502151,-63.346046,2.420820,93.693367,0.628317,-0.370672,-0.372159,0.573862,133,32.866552,-117.254050,-28.157534,-2455684.548510,-4767178.388107,3441521.840317,5.204251
151921912185,157726257000,1421434423477885952,157726257000,477898000,25,1,20,18,53,29,478,16,24.505001,102.186005,0.848229,2.120974,3.719467,0.390362,-9.725019,0.723918,25,1,20,18,53,25,400,7,3,32.866478,-117.254060,-22.176000,-2455689.725111,-4767186.243445,3441518.123076,40.029091,15.188396,49.502151,-63.319920,2.442816,93.683670,0.628419,-0.370384,-0.372177,0.573924,133,32.866552,-117.254050,-28.154970,-2455684.552105,-4767178.389733,3441521.840255,5.207871
151946283981,157751257000,1421434423502885888,157751257000,502898000,25,1,20,18,53,29,503,16,24.510000,102.186005,0.849166,2.121458,3.718270,0.475743,-9.730809,0.748929,25,1,20,18,53,25,400,7,3,32.866478,-117.254060,-22.176000,-2455689.725111,-4767186.243445,3441518.123076,40.029091,15.188396,49.502151,-63.322456,2.455082,93.691322,0.628486,-0.370359,-0.372231,0.573832,32901,32.866552,-117.254050,-28.152244,-2455684.555536,-4767178.391470,3441521.840457,5.211502
151971979907,157776257000,1421434423527885824,157776257000,527898000,25,1,20,18,53,29,528,0,24.507500,102.169006,0.848679,2.119052,3.718788,0.501789,-9.805820,0.729792,25,1,20,18,53,25,400,7,3,32.866478,-117.254060,-22.176000,-2455689.725111,-4767186.243445,3441518.123076,40.029091,15.188396,49.502151,-63.348465,2.466805,93.705505,0.628509,-0.370488,-0.372378,0.573629,32901,32.866552,-117.254050,-28.149499,-2455684.558989,-4767178.393317,3441521.840525,5.215145
151996792389,157801257000,1421434423552885760,157801257000,552898000,25,1,20,18,53,29,553,16,24.510000,102.173004,0.847752,2.120505,3.721614,0.545152,-9.730742,0.679013,25,1,20,18,53,25,400,7,3,32.866478,-117.254060,-22.176000,-2455689.725111,-4767186.243445,3441518.123076,40.029091,15.188396,49.502151,-63.387012,2.479750,93.718399,0.628488,-0.370674,-0.372598,0.573389,16517,32.866552,-117.254050,-28.146757,-2455684.562412,-4767178.395209,3441521.840550,5.218798
152022069815,157826257000,1421434423577885952,157826257000,577898000,25,1,20,18,53,29,578,16,24.505001,102.186005,0.848217,2.121238,3.722314,0.496191,-9.736953,0.666786,25,1,20,18,53,25,400,7,3,32.866478,-117.254060,-22.176000,-2455689.725111,-4767186.243445,3441518.123076,40.029091,15.188396,49.502151,-63.415775,2.483196,93.731247,0.628469,-0.370856,-0.372719,0.573213,16517,32.866552,-117.254050,-28.144060,-2455684.565815,-4767178.397126,3441521.840469,5.222462
152046493129,157851257000,1421434423602885888,157851257000,602898000,25,1,20,18,53,29,603,16,24.510000,102.173004,0.848233,2.120727,3.718521,0.461863,-9.814716,0.574276,25,1,20,18,53,25,400,7,3,32.866478,-117.254060,-22.176000,-2455689.725111,-4767186.243445,3441518.123076,40.029091,15.188396,49.502151,-63.429546,2.491892,93.741074,0.628500,-0.370919,-0.372803,0.573084,57477,32.866552,-117.254050,-28.141388,-2455684.569137,-4767178.399072,3441521.840361,5.226137
152071189444,157876257000,1421434423627885824,157876257000,627898000,25,1,20,18,53,29,628,0,24.507500,102.169006,0.846381,2.120704,3.718760,0.513738,-9.805135,0.558704,25,1,20,18,53,25,400,7,3,32.866478,-117.254060,-22.176000,-2455689.725111,-4767186.243445,3441518.123076,40.029091,15.188396,49.502151,-63.463001,2.509722,93.757629,0.628528,-0.371064,-0.373012,0.572823,57477,32.866552,-117.254050,-28.138490,-2455684.572609,-4767178.401365,3441521.840086,5.229824
152097072778,157901257000,1421434423652886016,157901257000,652898000,25,1,20,18,53,29,653,16,24.510000,102.173004,0.849146,2.121003,3.721368,0.442932,-9.864140,0.686658,25,1,20,18,53,25,600,7,3,32.866479,-117.254062,-22.543000,-2455689.705111,-4767185.863445,3441517.983076,40.030251,15.141537,49.562222,-63.512299,2.518342,93.770943,0.628461,-0.371334,-0.373261,0.572559,4229,32.866553,-117.254050,-28.174837,-2455684.578559,-4767178.313370,3441521.889966,5.221397
152121491518,157926257000,1421434423677885696,157926257000,677898000,25,1,20,18,53,29,678,16,24.500000,102.169006,0.849632,2.121464,3.718033,0.357727,-9.945701,0.671147,25,1,20,18,53,25,600,7,3,32.866479,-117.254062,-22.543000,-2455689.705111,-4767185.863445,3441517.983076,40.030251,15.141537,49.562222,-63.543507,2.538040,93.760277,0.628366,-0.371369,-0.373557,0.572448,4229,32.866553,-117.254050,-28.172177,-2455684.582233,-4767178.314697,3441521.890438,5.225061
152146575574,157951257000,1421434423702885888,157951257000,702898000,25,1,20,18,53,29,703,16,24.510000,102.186005,0.849856,2.121234,3.718987,0.420807,-9.880463,0.660887,25,1,20,18,53,25,600,7,3,32.866479,-117.254062,-22.543000,-2455689.705111,-4767185.863445,3441517.983076,40.030251,15.141537,49.562222,-63.563023,2.568921,93.729645,0.628243,-0.371217,-0.373919,0.572445,41093,32.866553,-117.254050,-28.168951,-2455684.586384,-4767178.316360,3441521.891152,5.228736
152171133129,157976257000,1421434423727886080,157976257000,727898000,25,1,20,18,53,29,728,0,24.510000,102.173004,0.849609,2.120279,3.720192,0.448334,-9.757965,0.650656,25,1,20,18,53,25,600,7,3,32.866479,-117.254062,-22.543000,-2455689.705111,-4767185.863445,3441517.983076,40.030251,15.141537,49.562222,-63.582542,2.593554,93.695709,0.628085,-0.371086,-0.374258,0.572482,41093,32.866553,-117.254050,-28.166432,-2455684.590031,-4767178.317591,3441521.891516,5.232422
152196394111,158001257000,1421434423752885760,158001257000,752898000,25,1,20,18,53,29,753,16,24.504999,102.181007,0.847307,2.120231,3.718056,0.430835,-9.755852,0.686140,25,1,20,18,53,25,600,7,3,32.866479,-117.254062,-22.543000,-2455689.705111,-4767185.863445,3441517.983076,40.030251,15.141537,49.562222,-63.597214,2.599270,93.663521,0.627894,-0.371032,-0.374466,0.572591,41093,32.866553,-117.254050,-28.163528,-2455684.594002,-4767178.319084,3441521.891999,5.236119
152221241889,158026257000,1421434423777885952,158026257000,777898000,25,1,20,18,53,29,778,16,24.505001,102.186005,0.846612,2.120953,3.719231,0.411449,-9.687350,0.675820,25,1,20,18,53,25,600,7,3,32.866479,-117.254062,-22.543000,-2455689.705111,-4767185.863445,3441517.983076,40.030251,15.141537,49.562222,-63.608734,2.583207,93.628410,0.627633,-0.371063,-0.374551,0.572801,133,32.866553,-117.254051,-28.160639,-2455684.597957,-4767178.320567,3441521.892478,5.239829
152246679963,158051257000,1421434423802885888,158051257000,802898000,25,1,20,18,53,29,803,16,24.507502,102.186005,0.848209,2.120522,3.722802,0.415066,-9.552801,0.607161,25,1,20,18,53,25,600,7,3,32.866479,-117.254062,-22.543000,-2455689.705111,-4767185.863445,3441517.983076,40.030251,15.141537,49.562222,-63.617218,2.558592,93.600975,0.627393,-0.371147,-0.374551,0.573009,133,32.866553,-117.254051,-28.157811,-2455684.601906,-4767178.322007,3441521.892908,5.243550
152271077944,158076257000,1421434423827885824,158076257000,827898000,25,1,20,18,53,29,828,0,24.510002,102.186005,0.846134,2.120724,3.721611,0.444275,-9.688231,0.695116,25,1,20,18,53,25,600,7,3,32.866479,-117.254062,-22.543000,-2455689.705111,-4767185.863445,3441517.983076,40.030251,15.141537,49.562222,-63.635429,2.533912,93.590622,0.627208,-0.371340,-0.374544,0.573091,32901,32.866553,-117.254051,-28.155027,-2455684.605877,-4767178.323465,3441521.893218,5.247283
152297157852,158101257000,1421434423852886016,158101257000,852898000,25,1,20,18,53,29,853,16,24.510000,102.173004,0.848908,2.119549,3.720205,0.472772,-9.906125,0.649183,25,1,20,18,53,25,800,7,3,32.866480,-117.254063,-22.736000,-2455689.685111,-4767185.623445,3441517.973076,40.027042,15.100063,49.632195,-63.684559,2.515706,93.579636,0.626939,-0.371666,-0.374728,0.573054,32901,32.866553,-117.254051,-28.184756,-2455684.604115,-4767178.285857,3441521.891432,5.238786
152322053240,158126257000,1421434423877885696,158126257000,877898000,25,1,20,18,53,29,878,16,24.510000,102.173004,0.849831,2.119809,3.721150,0.404973,-9.919795,0.639877,25,1,20,18,53,25,800,7,3,32.866480,-117.254063,-22.736000,-2455689.685111,-4767185.623445,3441517.973076,40.027042,15.100063,49.632195,-63.749470,2.489215,93.557152,0.626535,-0.372084,-0.374985,0.573056,133,32.866553,-117.254051,-28.182059,-2455684.608039,-4767178.287035,3441521.891999,5.242496
152346071074,158151257000,1421434423902885888,158151257000,902898000,25,1,20,18,53,29,903,16,24.510000,102.186005,0.850291,2.119333,3.720922,0.400599,-9.812623,0.634648,25,1,20,18,53,25,800,7,3,32.866480,-117.254063,-22.736000,-2455689.685111,-4767185.623445,3441517.973076,40.027042,15.100063,49.632195,-63.786121,2.442744,93.528290,0.626130,-0.372429,-0.375014,0.573255,133,32.866553,-117.254051,-28.179179,-2455684.612062,-4767178.288335,3441521.892664,5.246219
152370997981,158176257000,1421434423927885824,158176257000,927898000,25,1,20,18,53,29,928,0,24.510002,102.186005,0.851224,2.119822,3.720437,0.446016,-9.675610,0.544384,25,1,20,18,53,25,800,7,3,32.866480,-117.254063,-22.736000,-2455689.685111,-4767185.623445,3441517.973076,40.027042,15.100063,49.632195,-63.794140,2.393419,93.495506,0.625790,-0.372620,-0.374898,0.573579,32901,32.866553,-117.254051,-28.176297,-2455684.616121,-4767178.289673,3441521.893257,5.249953
152396633148,158201257000,1421434423952885760,158201257000,952898000,25,1,20,18,53,29,953,16,24.510000,102.186005,0.849146,2.120272,3.720192,0.485471,-9.722566,0.585239,25,1,20,18,53,25,800,7,3,32.866480,-117.254063,-22.736000,-2455689.685111,-4767185.623445,3441517.973076,40.027042,15.100063,49.632195,-63.799286,2.355376,93.487144,0.625616,-0.372816,-0.374748,0.573740,32901,32.866553,-117.254051,-28.173925,-2455684.620040,-4767178.290640,3441521.893521,5.253700
152422303592,158226257000,1421434423977885952,158226257000,977898000,25,1,20,18,53,29,978,16,24.510000,102.186005,0.850296,2.119811,3.720675,0.462925,-9.897385,0.646920,25,1,20,18,53,25,800,7,3,32.866480,-117.254063,-22.736000,-2455689.685111,-4767185.623445,3441517.973076,40.027042,15.100063,49.632195,-63.808388,2.331203,93.500778,0.625580,-0.373035,-0.374620,0.573719,133,32.866553,-117.254051,-28.171206,-2455684.624121,-4767178.291904,3441521.893900,5.257458
152447695370,158251257000,1421434424002885888,158251257000,2900000,25,1,20,18,53,30,3,16,24.507502,102.186005,0.850988,2.119583,3.720917,0.443430,-9.824279,0.590614,25,1,20,18,53,25,800,7,3,32.866480,-117.254063,-22.736000,-2455689.685111,-4767185.623445,3441517.973076,40.027042,15.100063,49.632195,-63.814018,2.316116,93.514427,0.625584,-0.373188,-0.374524,0.573679,133,32.866553,-117.254051,-28.168454,-2455684.628145,-4767178.293258,3441521.894256,5.261228
152471943296,158276257000,1421434424027885824,158276257000,27900000,25,1,20,18,53,30,28,0,24.510000,102.173004,0.849149,2.120269,3.719717,0.408199,-9.795710,0.500344,25,1,20,18,53,25,800,7,3,32.866480,-117.254063,-22.736000,-2455689.685111,-4767185.623445,3441517.973076,40.027042,15.100063,49.632195,-63.804794,2.292268,93.524330,0.625591,-0.373292,-0.374318,0.573737,36997,32.866553,-117.254051,-28.165614,-2455684.632208,-4767178.294704,3441521.894619,5.265010
152497499370,158301257000,1421434424052888064,158301257000,52900000,25,1,20,18,53,30,53,16,24.510000,102.186005,0.852618,2.120564,3.720661,0.295228,-9.767415,0.552544,25,1,20,18,53,26,0,7,3,32.866480,-117.254063,-22.805000,-2455689.675111,-4767185.563445,3441517.933076,39.998718,15.069771,49.684811,-63.776211,2.257046,93.527199,0.625591,-0.373327,-0.373978,0.573937,36997,32.866553,-117.254051,-28.164188,-2455684.633185,-4767178.317638,3441521.865000,5.256207
152521024277,158326257000,1421434424077888256,158326257000,77900000,25,1,20,18,53,30,78,16,24.510000,102.186005,0.851921,2.120559,3.721137,0.326450,-9.789145,0.567625,25,1,20,18,53,26,0,7,3,32.866480,-117.254063,-22.805000,-2455689.675111,-4767185.563445,3441517.933076,39.998718,15.069771,49.684811,-63.735020,2.231167,93.525505,0.625638,-0.373229,-0.373639,0.574170,2181,32.866553,-117.254051,-28.161542,-2455684.637127,-4767178.319053,3441521.865135,5.259964
152546866425,158351257000,1421434424102888448,158351257000,102900000,25,1,20,18,53,30,103,16,24.510000,102.186005,0.851449,2.119349,3.720922,0.304256,-9.829224,0.569234,25,1,20,18,53,26,0,7,3,32.866480,-117.254063,-22.805000,-2455689.675111,-4767185.563445,3441517.933076,39.998718,15.069771,49.684811,-63.705273,2.223773,93.514717,0.625658,-0.373070,-0.373485,0.574351,2181,32.866553,-117.254051,-28.158734,-2455684.641370,-4767178.320621,3441521.865145,5.263733
152570880666,158376257000,1421434424127888128,158376257000,127900000,25,1,20,18,53,30,128,0,24.510000,102.173004,0.852606,2.119367,3.721159,0.334527,-9.893661,0.617275,25,1,20,18,53,26,0,7,3,32.866480,-117.254063,-22.805000,-2455689.675111,-4767185.563445,3441517.933076,39.998718,15.069771,49.684811,-63.683819,2.227819,93.503967,0.625687,-0.372897,-0.373435,0.574466,41093,32.866553,-117.254051,-28.155903,-2455684.645667,-4767178.322213,3441521.865125,5.267513
152597625444,158401257000,1421434424152888320,158401257000,152900000,25,1,20,18,53,30,153,16,24.510000,102.173004,0.849602,2.119564,3.720682,0.292456,-9.893316,0.653944,25,1,20,18,53,26,0,7,3,32.866480,-117.254063,-22.805000,-2455689.675111,-4767185.563445,3441517.933076,39.998718,15.069771,49.684811,-63.666595,2.239831,93.491013,0.625714,-0.372699,-0.373454,0.574551,41093,32.866553,-117.254051,-28.153018,-2455684.650007,-4767178.323830,3441521.865140,5.271307
152620862296,158426257000,1421434424177888256,158426257000,177900000,25,1,20,18,53,30,178,16,24.510000,102.186005,0.849118,2.118613,3.722837,0.396612,-9.790914,0.593861,25,1,20,18,53,26,0,7,3,32.866480,-117.254063,-22.805000,-2455689.675111,-4767185.563445,3441517.933076,39.998718,15.069771,49.684811,-63.643974,2.259580,93.478714,0.625786,-0.372434,-0.373486,0.574624,41093,32.866553,-117.254051,-28.150017,-2455684.654410,-4767178.325528,3441521.865212,5.275113
152647156907,158451257000,1421434424202888192,158451257000,202900000,25,1,20,18,53,30,203,16,24.510000,102.186005,0.849822,2.118365,3.720703,0.469075,-9.769014,0.641742,25,1,20,18,53,26,0,7,3,32.866480,-117.254063,-22.805000,-2455689.675111,-4767185.563445,3441517.933076,39.998718,15.069771,49.684811,-63.626083,2.284730,93.481049,0.625933,-0.372214,-0.373523,0.574583,133,32.866553,-117.254051,-28.147060,-2455684.658806,-4767178.327231,3441521.865201,5.278932
152670887555,158476257000,1421434424227888384,158476257000,227900000,25,1,20,18,53,30,228,0,24.510000,102.173004,0.848198,2.119080,3.722592,0.381874,-9.903916,0.731455,25,1,20,18,53,26,0,7,3,32.866480,-117.254063,-22.805000,-2455689.675111,-4767185.563445,3441517.933076,39.998718,15.069771,49.684811,-63.625614,2.315017,93.484039,0.626041,-0.372065,-0.373673,0.574463,133,32.866552,-117.254051,-28.144086,-2455684.663216,-4767178.328938,3441521.865209,5.282763
152697741722,158501257000,1421434424252888320,158501257000,252900000,25,1,20,18,53,30,253,16,24.510000,102.186005,0.850292,2.119337,3.721161,0.324114,-9.825301,0.599400,25,1,20,18,53,26,200,7,3,32.866478,-117.254063,-23.031000,-2455689.645111,-4767185.503445,3441517.633076,39.969120,15.040932,49.741371,-63.633141,2.342786,93.476204,0.626062,-0.371938,-0.373884,0.574386,32901,32.866552,-117.254051,-28.144540,-2455684.663362,-4767178.351742,3441521.832892,5.273538
152722647259,158526257000,1421434424277888256,158526257000,277900000,25,1,20,18,53,30,278,16,24.510000,102.173004,0.850983,2.118864,3.720932,0.342571,-9.811136,0.684766,25,1,20,18,53,26,200,7,3,32.866478,-117.254063,-23.031000,-2455689.645111,-4767185.503445,3441517.633076,39.969120,15.040932,49.741371,-63.631855,2.372642,93.465858,0.626105,-0.371743,-0.374071,0.574343,32901,32.866552,-117.254051,-28.141429,-2455684.667737,-4767178.353733,3441521.832783,5.277342
152747505111,158551257000,1421434424302888192,158551257000,302900000,25,1,20,18,53,30,303,16,24.510000,102.186005,0.849365,2.119082,3.720928,0.419710,-9.764052,0.608131,25,1,20,18,53,26,200,7,3,32.866478,-117.254063,-23.031000,-2455689.645111,-4767185.503445,3441517.633076,39.969120,15.040932,49.741371,-63.624622,2.415823,93.445656,0.626159,-0.371415,-0.374330,0.574328,133,32.866552,-117.254051,-28.137942,-2455684.672197,-4767178.355993,3441521.832939,5.281159
152771961185,158576257000,1421434424327888128,158576257000,327900000,25,1,20,18,53,30,328,0,24.510000,102.186005,0.851001,2.120056,3.719723,0.458005,-9.803921,0.565557,25,1,20,18,53,26,200,7,3,32.866478,-117.254063,-23.031000,-2455689.645111,-4767185.503445,3441517.633076,39.969120,15.040932,49.741371,-63.629158,2.466533,93.425270,0.626196,-0.371112,-0.374689,0.574249,133,32.866552,-117.254051,-28.134707,-2455684.676718,-4767178.358087,3441521.832814,5.284989
152797233073,158601257000,1421434424352888320,158601257000,352900000,25,1,20,18,53,30,353,16,24.510000,102.173004,0.847492,2.118356,3.723555,0.476498,-9.746967,0.580711,25,1,20,18,53,26,200,7,3,32.866478,-117.254063,-23.031000,-2455689.645111,-4767185.503445,3441517.633076,39.969120,15.040932,49.741371,-63.653358,2.501554,93.413483,0.626165,-0.371025,-0.375035,0.574114,32901,32.866552,-117.254051,-28.131954,-2455684.680915,-4767178.359868,3441521.832462,5.288832
152822124759,158626257000,1421434424377888256,158626257000,377900000,25,1,20,18,53,30,378,16,24.505001,102.173004,0.847732,2.118591,3.722363,0.365509,-9.719617,0.540363,25,1,20,18,53,26,200,7,3,32.866478,-117.254063,-23.031000,-2455689.645111,-4767185.503445,3441517.633076,39.969120,15.040932,49.741371,-63.678219,2.524888,93.403664,0.626106,-0.371009,-0.375316,0.574005,32901,32.866552,-117.254051,-28.128839,-2455684.685381,-4767178.361948,3441521.832174,5.292686
152847555203,158651257000,1421434424402888192,158651257000,402900000,25,1,20,18,53,30,403,16,24.510000,102.186005,0.846329,2.117373,3.722860,0.384105,-9.768059,0.616933,25,1,20,18,53,26,200,7,3,32.866478,-117.254063,-23.031000,-2455689.645111,-4767185.503445,3441517.633076,39.969120,15.040932,49.741371,-63.679543,2.560464,93.402046,0.626202,-0.370827,-0.375517,0.573886,133,32.866552,-117.254051,-28.125756,-2455684.689966,-4767178.364009,3441521.831771,5.296555
152872037481,158676257000,1421434424427888128,158676257000,427900000,25,1,20,18,53,30,428,0,24.510000,102.173004,0.847728,2.116890,3.720254,0.361472,-9.820015,0.599656,25,1,20,18,53,26,200,7,3,32.866478,-117.254063,-23.031000,-2455689.645111,-4767185.503445,3441517.633076,39.969120,15.040932,49.741371,-63.680447,2.614098,93.400955,0.626356,-0.370552,-0.375811,0.573704,133,32.866552,-117.254051,-28.122340,-2455684.694640,-4767178.366291,3441521.831613,5.300435
152897568647,158701257000,1421434424452888320,158701257000,452900000,25,1,20,18,53,30,453,16,24.510000,102.173004,0.848439,2.119555,3.721632,0.413254,-9.773170,0.591237,25,1,20,18,53,26,400,7,3,32.866477,-117.254063,-23.231000,-2455689.605111,-4767185.423445,3441517.393076,39.938637,15.010067,49.795776,-63.697731,2.679753,93.402000,0.626505,-0.370311,-0.376243,0.573413,53381,32.866552,-117.254051,-28.115379,-2455684.695438,-4767178.389389,3441521.812093,5.290892
152922194925,158726257000,1421434424477888256,158726257000,477900000,25,1,20,18,53,30,478,16,24.500000,102.169006,0.848427,2.118597,3.722124,0.413537,-9.735384,0.579826,25,1,20,18,53,26,400,7,3,32.866477,-117.254063,-23.231000,-2455689.605111,-4767185.423445,3441517.393076,39.938637,15.010067,49.795776,-63.718830,2.737938,93.407684,0.626641,-0.370145,-0.376640,0.573111,53381,32.866552,-117.254051,-28.112152,-2455684.699995,-4767178.391626,3441521.811731,5.294744
152946826796,158751257000,1421434424502888192,158751257000,502900000,25,1,20,18,53,30,503,16,24.510000,102.186005,0.847511,2.118327,3.719991,0.408721,-9.778475,0.597246,25,1,20,18,53,26,400,7,3,32.866477,-117.254063,-23.231000,-2455689.605111,-4767185.423445,3441517.393076,39.938637,15.010067,49.795776,-63.728996,2.781895,93.409515,0.626751,-0.369979,-0.376918,0.572915,2181,32.866552,-117.254051,-28.109350,-2455684.704393,-4767178.393527,3441521.811162,5.298608
152972136166,158776257000,1421434424527888384,158776257000,527900000,25,1,20,18,53,30,528,0,24.502501,102.198006,0.846340,2.117603,3.721431,0.446490,-9.771739,0.613424,25,1,20,18,53,26,400,7,3,32.866477,-117.254063,-23.231000,-2455689.605111,-4767185.423445,3441517.393076,39.938637,15.010067,49.795776,-63.725319,2.811650,93.402428,0.626817,-0.369782,-0.377081,0.572862,2181,32.866552,-117.254051,-28.106211,-2455684.709037,-4767178.395681,3441521.810690,5.302485
152997116962,158801257000,1421434424552888064,158801257000,552900000,25,1,20,18,53,30,553,16,24.510000,102.186005,0.844254,2.118312,3.723321,0.433843,-9.632614,0.567153,25,1,20,18,53,26,400,7,3,32.866477,-117.254063,-23.231000,-2455689.605111,-4767185.423445,3441517.393076,39.938637,15.010067,49.795776,-63.726681,2.825849,93.381645,0.626752,-0.369648,-0.377230,0.572922,41093,32.866552,-117.254051,-28.103098,-2455684.713622,-4767178.397826,3441521.810226,5.306375
153022482758,158826257000,1421434424577888256,158826257000,577900000,25,1,20,18,53,30,578,16,24.505001,102.186005,0.845405,2.117121,3.722629,0.471148,-9.676993,0.569965,25,1,20,18,53,26,400,7,3,32.866477,-117.254063,-23.231000,-2455689.605111,-4767185.423445,3441517.393076,39.938637,15.010067,49.795776,-63.731514,2.824797,93.363777,0.626644,-0.369621,-0.377306,0.573008,41093,32.866552,-117.254051,-28.100041,-2455684.718278,-4767178.399928,3441521.809667,5.310279
153047334944,158851257000,1421434424602888448,158851257000,602900000,25,1,20,18,53,30,603,16,24.510000,102.173004,0.846567,2.117618,3.722620,0.563565,-9.687210,0.559563,25,1,20,18,53,26,400,7,3,32.866477,-117.254063,-23.231000,-2455689.605111,-4767185.423445,3441517.393076,39.938637,15.010067,49.795776,-63.745708,2.814852,93.354279,0.626520,-0.369719,-0.377355,0.573047,12421,32.866552,-117.254051,-28.096971,-2455684.722979,-4767178.402097,3441521.809008,5.314196
153072597036,158876257000,1421434424627888128,158876257000,627900000,25,1,20,18,53,30,628,0,24.510000,102.173004,0.848184,2.117157,3.722390,0.515670,-9.817349,0.476150,25,1,20,18,53,26,400,7,3,32.866477,-117.254063,-23.231000,-2455689.605111,-4767185.423445,3441517.393076,39.938637,15.010067,49.795776,-63.780342,2.788735,93.357979,0.626348,-0.370055,-0.377378,0.573004,12421,32.866552,-117.254051,-28.094017,-2455684.727672,-4767178.404156,3441521.808291,5.318127
153097245221,158901257000,1421434424652888320,158901257000,652900000,25,1,20,18,53,30,653,16,24.505001,102.186005,0.847268,2.118349,3.722607,0.494931,-9.877345,0.529716,25,1,20,18,53,26,600,7,3,32.866475,-117.254064,-23.508000,-2455689.555111,-4767185.273445,3441517.123076,39.893387,14.975641,49.854069,-63.813763,2.749103,93.376587,0.626213,-0.370504,-0.377274,0.572930,51333,32.866552,-117.254051,-28.091311,-2455684.734381,-4767178.402708,3441521.810516,5.309793
153121496740,158926257000,1421434424677888256,158926257000,677900000,25,1,20,18,53,30,678,16,24.505001,102.186005,0.847758,2.119778,3.720206,0.452654,-9.901099,0.568018,25,1,20,18,53,26,600,7,3,32.866475,-117.254064,-23.508000,-2455689.555111,-4767185.273445,3441517.123076,39.893387,14.975641,49.854069,-63.832848,2.716407,93.389778,0.626118,-0.370820,-0.377153,0.572909,51333,32.866552,-117.254051,-28.088584,-2455684.739130,-4767178.404548,3441521.809643,5.313704
153146653166,158951257000,1421434424702888192,158951257000,702900000,25,1,20,18,53,30,703,16,24.510000,102.173004,0.847515,2.118817,3.720698,0.435016,-9.929493,0.615048,25,1,20,18,53,26,600,7,3,32.866475,-117.254064,-23.508000,-2455689.555111,-4767185.273445,3441517.123076,39.893387,14.975641,49.854069,-63.843365,2.714986,93.389923,0.626080,-0.370885,-0.377198,0.572878,51333,32.866552,-117.254051,-28.085477,-2455684.743856,-4767178.406693,3441521.809068,5.317628
153172252166,158976257000,1421434424727888384,158976257000,727900000,25,1,20,18,53,30,728,0,24.510000,102.186005,0.847267,2.117865,3.722141,0.396859,-9.887261,0.561610,25,1,20,18,53,26,600,7,3,32.866475,-117.254064,-23.508000,-2455689.555111,-4767185.273445,3441517.123076,39.893387,14.975641,49.854069,-63.843754,2.751091,93.374077,0.626109,-0.370649,-0.377443,0.572838,133,32.866552,-117.254052,-28.081844,-2455684.748903,-4767178.409225,3441521.808701,5.321564
153196490369,159001257000,1421434424752888320,159001257000,752900000,25,1,20,18,53,30,753,16,24.510000,102.186005,0.846798,2.117868,3.723329,0.476865,-9.728790,0.433900,25,1,20,18,53,26,600,7,3,32.866475,-117.254064,-23.508000,-2455689.555111,-4767185.273445,3441517.123076,39.893387,14.975641,49.854069,-63.832943,2.809181,93.358856,0.626244,-0.370240,-0.377747,0.572755,133,32.866552,-117.254052,-28.078726,-2455684.753848,-4767178.411347,3441521.808021,5.325515
153222202851,159026257000,1421434424777888256,159026257000,777900000,25,1,20,18,53,30,778,16,24.505001,102.186005,0.845872,2.117369,3.722626,0.531356,-9.845582,0.612941,25,1,20,18,53,26,600,7,3,32.866475,-117.254064,-23.508000,-2455689.555111,-4767185.273445,3441517.123076,39.893387,14.975641,49.854069,-63.811161,2.867846,93.358490,0.626491,-0.369817,-0.377950,0.572624,32901,32.866551,-117.254052,-28.075460,-2455684.758946,-4767178.413601,3441521.807324,5.329479
153246854684,159051257000,1421434424802888192,159051257000,802900000,25,1,20,18,53,30,803,16,24.510000,102.173004,0.844715,2.117110,3.722156,0.630754,-9.853316,0.648825,25,1,20,18,53,26,600,7,3,32.866475,-117.254064,-23.508000,-2455689.555111,-4767185.273445,3441517.123076,39.893387,14.975641,49.854069,-63.792755,2.925623,93.346649,0.626666,-0.369379,-0.378203,0.572549,32901,32.866551,-117.254052,-28.072102,-2455684.764078,-4767178.415996,3441521.806580,5.333457
153272144740,159076257000,1421434424827888128,159076257000,827900000,25,1,20,18,53,30,828,0,24.510000,102.186005,0.844254,2.117099,3.721681,0.620059,-9.752118,0.588454,25,1,20,18,53,26,600,7,3,32.866475,-117.254064,-23.508000,-2455689.555111,-4767185.273445,3441517.123076,39.893387,14.975641,49.854069,-63.795738,2.977602,93.318886,0.626675,-0.369035,-0.378583,0.572509,133,32.866551,-117.254052,-28.068612,-2455684.769279,-4767178.418529,3441521.805840,5.337449
153297487721,159101257000,1421434424852888320,159101257000,852900000,25,1,20,18,53,30,853,16,24.505001,102.186005,0.844013,2.116623,3.722640,0.502312,-9.782555,0.592417,25,1,20,18,53,26,800,7,3,32.866474,-117.254064,-23.873000,-2455689.525111,-4767185.073445,3441516.753076,39.847160,14.940911,49.909218,-63.811489,3.031476,93.294624,0.626666,-0.368762,-0.379026,0.572402,133,32.866551,-117.254052,-28.060395,-2455684.778738,-4767178.419355,3441521.813140,5.326728
153321901721,159126257000,1421434424877888256,159126257000,877900000,25,1,20,18,53,30,878,16,24.510000,102.186005,0.845641,2.116634,3.721214,0.464266,-9.787161,0.564063,25,1,20,18,53,26,800,7,3,32.866474,-117.254064,-23.873000,-2455689.525111,-4767185.073445,3441516.753076,39.847160,14.940911,49.909218,-63.831223,3.094810,93.282532,0.626733,-0.368502,-0.379499,0.572182,32901,32.866551,-117.254052,-28.057114,-2455684.783798,-4767178.421625,3441521.812475,5.330681
153347242666,159151257000,1421434424902888192,159151257000,902900000,25,1,20,18,53,30,903,16,24.510000,102.173004,0.846569,2.117131,3.721680,0.539302,-9.744159,0.556588,25,1,20,18,53,26,800,7,3,32.866474,-117.254064,-23.873000,-2455689.525111,-4767185.073445,3441516.753076,39.847160,14.940911,49.909218,-63.841393,3.148189,93.284622,0.626872,-0.368288,-0.379826,0.571951,32901,32.866551,-117.254052,-28.054008,-2455684.788835,-4767178.423754,3441521.811699,5.334649
153372313888,159176257000,1421434424927888128,159176257000,927900000,25,1,20,18,53,30,928,0,24.510000,102.186005,0.846129,2.118309,3.719521,0.485427,-9.805061,0.606133,25,1,20,18,53,26,800,7,3,32.866474,-117.254064,-23.873000,-2455689.525111,-4767185.073445,3441516.753076,39.847160,14.940911,49.909218,-63.832882,3.184635,93.295654,0.627064,-0.368090,-0.379941,0.571791,133,32.866551,-117.254052,-28.050615,-2455684.794047,-4767178.426144,3441521.810969,5.338630
153396869740,159201257000,1421434424952888320,159201257000,952900000,25,1,20,18,53,30,953,16,24.510000,102.186005,0.844495,2.117819,3.721193,0.490566,-9.713174,0.528581,25,1,20,18,53,26,800,7,3,32.866474,-117.254064,-23.873000,-2455689.525111,-4767185.073445,3441516.753076,39.847160,14.940911,49.909218,-63.812881,3.218681,93.305969,0.627283,-0.367838,-0.379988,0.571682,133,32.866551,-117.254052,-28.046908,-2455684.799283,-4767178.428665,3441521.810620,5.342625
153421778166,159226257000,1421434424977888256,159226257000,977900000,25,1,20,18,53,30,978,16,24.510000,102.173004,0.843760,2.115921,3.725504,0.561690,-9.694476,0.569955,25,1,20,18,53,26,800,7,3,32.866474,-117.254064,-23.873000,-2455689.525111,-4767185.073445,3441516.753076,39.847160,14.940911,49.909218,-63.797352,3.268692,93.322952,0.627568,-0.367551,-0.380121,0.571466,32901,32.866551,-117.254052,-28.043620,-2455684.804561,-4767178.430973,3441521.809763,5.346634
153447045610,159251257000,1421434425002888192,159251257000,2899000,25,1,20,18,53,31,3,16,24.502501,102.181007,0.843318,2.116127,3.721936,0.624725,-9.771802,0.524287,25,1,20,18,53,26,800,7,3,32.866474,-117.254064,-23.873000,-2455689.525111,-4767185.073445,3441516.753076,39.847160,14.940911,49.909218,-63.793423,3.319628,93.340012,0.627819,-0.367322,-0.380317,0.571207,32901,32.866551,-117.254052,-28.040665,-2455684.809710,-4767178.433063,3441521.808682,5.350657
153472423999,159276256000,1421434425027887360,159276256000,27898000,25,1,20,18,53,31,28,0,24.510000,102.186005,0.842414,2.117546,3.720486,0.623313,-9.916683,0.523590,25,1,20,18,53,26,800,7,3,32.866474,-117.254064,-23.873000,-2455689.525111,-4767185.073445,3441516.753076,39.847160,14.940911,49.909218,-63.793499,3.356233,93.353256,0.627995,-0.367177,-0.380468,0.571006,30853,32.866551,-117.254052,-28.037361,-2455684.815011,-4767178.435444,3441521.807737,5.354695
153496996592,159301257000,1421434425052890112,159301257000,52899000,25,1,20,18,53,31,53,16,24.510000,102.173004,0.843083,2.116130,3.722649,0.519637,-9.955644,0.585388,25,1,20,18,53,27,0,7,3,32.866472,-117.254065,-24.046000,-2455689.545111,-4767184.973445,3441516.543076,39.801872,14.905809,49.962715,-63.783466,3.382941,93.356255,0.628122,-0.366993,-0.380550,0.570929,30853,32.866551,-117.254052,-28.021125,-2455684.802607,-4767178.448665,3441521.828257,5.335884
153522188851,159326257000,1421434425077890048,159326257000,77899000,25,1,20,18,53,31,78,16,24.510000,102.161003,0.843113,2.118036,3.720478,0.553504,-9.809917,0.577736,25,1,20,18,53,27,0,7,3,32.866472,-117.254065,-24.046000,-2455689.545111,-4767184.973445,3441516.543076,39.801872,14.905809,49.962715,-63.762810,3.412898,93.343849,0.628216,-0.366684,-0.380646,0.570961,63621,32.866551,-117.254052,-28.017604,-2455684.807806,-4767178.451126,3441521.827674,5.339819
153546895499,159351257000,1421434425102890240,159351257000,102899000,25,1,20,18,53,31,103,16,24.510000,102.173004,0.843334,2.117569,3.721674,0.565929,-9.775180,0.587238,25,1,20,18,53,27,0,7,3,32.866472,-117.254065,-24.046000,-2455689.545111,-4767184.973445,3441516.543076,39.801872,14.905809,49.962715,-63.739075,3.455315,93.327293,0.628337,-0.366279,-0.380805,0.570982,63621,32.866551,-117.254052,-28.013840,-2455684.812992,-4767178.453790,3441521.827268,5.343768
153571956499,159376257000,1421434425127890176,159376257000,127899000,25,1,20,18,53,31,128,0,24.510000,102.186005,0.843092,2.116119,3.721224,0.556421,-9.783514,0.529782,25,1,20,18,53,27,0,7,3,32.866472,-117.254065,-24.046000,-2455689.545111,-4767184.973445,3441516.543076,39.801872,14.905809,49.962715,-63.719521,3.516069,93.316299,0.628526,-0.365820,-0.381064,0.570895,63621,32.866551,-117.254052,-28.010347,-2455684.818279,-4767178.456255,3441521.826566,5.347731
153596224647,159401257000,1421434425152890112,159401257000,152899000,25,1,20,18,53,31,153,16,24.510000,102.186005,0.841001,2.115372,3.721476,0.622170,-9.758610,0.559492,25,1,20,18,53,27,0,7,3,32.866472,-117.254065,-24.046000,-2455689.545111,-4767184.973445,3441516.543076,39.801872,14.905809,49.962715,-63.696690,3.578430,93.316940,0.628789,-0.365373,-0.381278,0.570748,12421,32.866551,-117.254052,-28.006787,-2455684.823614,-4767178.458771,3441521.825883,5.351707
153622087554,159426257000,1421434425177890048,159426257000,177899000,25,1,20,18,53,31,178,16,24.510000,102.186005,0.840529,2.115624,3.723610,0.612037,-9.864700,0.607530,25,1,20,18,53,27,0,7,3,32.866472,-117.254065,-24.046000,-2455689.545111,-4767184.973445,3441516.543076,39.801872,14.905809,49.962715,-63.660011,3.624798,93.324997,0.629085,-0.364958,-0.381315,0.570664,12421,32.866551,-117.254052,-28.003226,-2455684.828980,-4767178.461310,3441521.825148,5.355697
153646559406,159451257000,1421434425202890240,159451257000,202899000,25,1,20,18,53,31,203,16,24.510000,102.186005,0.840770,2.116344,3.723122,0.575256,-9.801267,0.598781,25,1,20,18,53,27,0,7,3,32.866472,-117.254065,-24.046000,-2455689.545111,-4767184.973445,3441516.543076,39.801872,14.905809,49.962715,-63.626003,3.672847,93.324776,0.629335,-0.364521,-0.381401,0.570610,61573,32.866551,-117.254052,-27.999600,-2455684.834410,-4767178.463939,3441521.824362,5.359700
153671107462,159476257000,1421434425227890176,159476257000,227899000,25,1,20,18,53,31,228,0,24.510000,102.186005,0.838215,2.116079,3.724316,0.612014,-9.589946,0.479542,25,1,20,18,53,27,0,7,3,32.866472,-117.254065,-24.046000,-2455689.545111,-4767184.973445,3441516.543076,39.801872,14.905809,49.962715,-63.604290,3.733720,93.328552,0.629605,-0.364098,-0.381602,0.570448,61573,32.866551,-117.254052,-27.995991,-2455684.839905,-4767178.466523,3441521.823563,5.363718
153696166888,159501257000,1421434425252890112,159501257000,252899000,25,1,20,18,53,31,253,16,24.510000,102.186005,0.838239,2.117018,3.721449,0.757736,-9.572071,0.548080,25,1,20,18,53,27,200,7,3,32.866472,-117.254065,-24.151000,-2455689.525111,-4767184.933445,3441516.423076,39.723019,14.870466,49.969353,-63.581799,3.786653,93.350151,0.629941,-0.363771,-0.381702,0.570218,22661,32.866551,-117.254052,-27.966335,-2455684.837362,-4767178.514350,3441521.814207,5.349324
153721313740,159526257000,1421434425277890304,159526257000,277899000,25,1,20,18,53,31,278,16,24.510000,102.186005,0.839165,2.116055,3.719802,0.727291,-9.806220,0.622597,25,1,20,18,53,27,200,7,3,32.866472,-117.254065,-24.151000,-2455689.525111,-4767184.933445,3441516.423076,39.723019,14.870466,49.969353,-63.557018,3.824900,93.365845,0.630211,-0.363488,-0.381731,0.570080,22661,32.866551,-117.254052,-27.963291,-2455684.842386,-4767178.516903,3441521.812741,5.354072
153746820499,159551257000,1421434425302889984,159551257000,302899000,25,1,20,18,53,31,303,16,24.510000,102.173004,0.838711,2.117255,3.720257,0.668416,-9.880807,0.637329,25,1,20,18,53,27,200,7,3,32.866472,-117.254065,-24.151000,-2455689.525111,-4767184.933445,3441516.423076,39.723019,14.870466,49.969353,-63.541821,3.847106,93.356384,0.630279,-0.363258,-0.381803,0.570105,59525,32.866551,-117.254052,-27.959825,-2455684.847581,-4767178.519628,3441521.811699,5.358044
153771477017,159576257000,1421434425327890176,159576257000,327899000,25,1,20,18,53,31,328,0,24.510000,102.173004,0.838938,2.117021,3.720736,0.726861,-9.750371,0.627627,25,1,20,18,53,27,200,7,3,32.866472,-117.254065,-24.151000,-2455689.525111,-4767184.933445,3441516.423076,39.723019,14.870466,49.969353,-63.537544,3.855032,93.331146,0.630190,-0.363109,-0.381904,0.570230,59525,32.866551,-117.254052,-27.956309,-2455684.852754,-4767178.522459,3441521.810615,5.362029
153796311425,159601257000,1421434425352890368,159601257000,352899000,25,1,20,18,53,31,353,16,24.510000,102.186005,0.839168,2.117271,3.721444,0.718363,-9.654547,0.607894,25,1,20,18,53,27,200,7,3,32.866472,-117.254065,-24.151000,-2455689.525111,-4767184.933445,3441516.423076,39.723019,14.870466,49.969353,-63.543964,3.849333,93.311020,0.630053,-0.363107,-0.381969,0.570339,28805,32.866551,-117.254052,-27.952751,-2455684.857922,-4767178.525427,3441521.809426,5.366028
153821274832,159626257000,1421434425377890048,159626257000,377899000,25,1,20,18,53,31,378,16,24.510000,102.186005,0.837526,2.116062,3.723366,0.649882,-9.751023,0.612834,25,1,20,18,53,27,200,7,3,32.866472,-117.254065,-24.151000,-2455689.525111,-4767184.933445,3441516.423076,39.723019,14.870466,49.969353,-63.572235,3.832366,93.308838,0.629902,-0.363343,-0.382027,0.570316,28805,32.866551,-117.254052,-27.949156,-2455684.863186,-4767178.528389,3441521.808244,5.370041
153847790369,159651257000,1421434425402890240,159651257000,402899000,25,1,20,18,53,31,403,16,24.510000,102.173004,0.837300,2.115807,3.721946,0.615085,-9.820744,0.641932,25,1,20,18,53,27,200,7,3,32.866472,-117.254065,-24.151000,-2455689.525111,-4767184.933445,3441516.423076,39.723019,14.870466,49.969353,-63.622185,3.821379,93.312950,0.629731,-0.363689,-0.382204,0.570166,36997,32.866551,-117.254052,-27.945621,-2455684.868360,-4767178.531333,3441521.807039,5.374069
153872015054,159676257000,1421434425427890176,159676257000,427899000,25,1,20,18,53,31,428,0,24.510000,102.173004,0.838698,2.115812,3.720282,0.595533,-9.799322,0.566896,25,1,20,18,53,27,200,7,3,32.866472,-117.254065,-24.151000,-2455689.525111,-4767184.933445,3441516.423076,39.723019,14.870466,49.969353,-63.660542,3.817587,93.317383,0.629620,-0.363934,-0.382361,0.570027,36997,32.866551,-117.254052,-27.942091,-2455684.873585,-4767178.534264,3441521.805807,5.378110
153896961832,159701257000,1421434425452890112,159701257000,452899000,25,1,20,18,53,31,453,16,24.510000,102.186005,0.837771,2.116775,3.721928,0.651948,-9.772816,0.571974,25,1,20,18,53,27,400,7,3,32.866471,-117.254065,-24.152000,-2455689.515111,-4767184.963445,3441516.393076,39.615540,14.814827,49.986637,-63.663029,3.823370,93.329353,0.629689,-0.363958,-0.382366,0.569932,30853,32.866550,-117.254052,-27.909551,-2455684.862671,-4767178.594572,3441521.790524,5.364243
153921428925,159726257000,1421434425477890304,159726257000,477899000,25,1,20,18,53,31,478,16,24.510000,102.173004,0.839610,2.115113,3.721481,0.633130,-9.846770,0.572571,25,1,20,18,53,27,400,7,3,32.866471,-117.254065,-24.152000,-2455689.515111,-4767184.963445,3441516.393076,39.615540,14.814827,49.986637,-63.652161,3.844447,93.344780,0.629863,-0.363840,-0.382374,0.569810,30853,32.866550,-117.254052,-27.905814,-2455684.867588,-4767178.597983,3441521.789232,5.369026
153947887462,159751257000,1421434425502889984,159751257000,502899000,25,1,20,18,53,31,503,16,24.507500,102.181007,0.839158,2.116553,3.721932,0.715755,-9.868195,0.457129,25,1,20,18,53,27,400,7,3,32.866471,-117.254065,-24.152000,-2455689.515111,-4767184.963445,3441516.393076,39.615540,14.814827,49.986637,-63.645741,3.883493,93.351562,0.630033,-0.363624,-0.382527,0.569657,63621,32.866550,-117.254052,-27.902178,-2455684.872554,-4767178.601286,3441521.787869,5.373026
153972196943,159776257000,1421434425527890176,159776257000,527899000,25,1,20,18,53,31,528,0,24.510000,102.186005,0.839619,2.116319,3.721935,0.739452,-9.835110,0.498279,25,1,20,18,53,27,400,7,3,32.866471,-117.254065,-24.152000,-2455689.515111,-4767184.963445,3441516.393076,39.615540,14.814827,49.986637,-63.655571,3.923372,93.353928,0.630132,-0.363479,-0.382779,0.569471,63621,32.866550,-117.254052,-27.898440,-2455684.877594,-4767178.604711,3441521.786471,5.377040
153997165147,159801257000,1421434425552890112,159801257000,552899000,25,1,20,18,53,31,553,16,24.510000,102.186005,0.837999,2.116297,3.721937,0.653885,-9.804867,0.524267,25,1,20,18,53,27,400,7,3,32.866471,-117.254065,-24.152000,-2455689.515111,-4767184.963445,3441516.393076,39.615540,14.814827,49.986637,-63.663540,3.954987,93.347534,0.630169,-0.363337,-0.383006,0.569368,12421,32.866550,-117.254052,-27.894682,-2455684.882764,-4767178.608231,3441521.784889,5.381069
154024012813,159826257000,1421434425577890048,159826257000,577899000,25,1,20,18,53,31,578,16,24.510000,102.173004,0.836362,2.115812,3.724084,0.643546,-9.765624,0.561296,25,1,20,18,53,27,400,7,3,32.866471,-117.254065,-24.152000,-2455689.515111,-4767184.963445,3441516.393076,39.615540,14.814827,49.986637,-63.640652,3.988792,93.327850,0.630244,-0.362969,-0.383133,0.569433,12421,32.866550,-117.254052,-27.890622,-2455684.887992,-4767178.611983,3441521.783503,5.385110
154047079369,159851257000,1421434425602890240,159851257000,602899000,25,1,20,18,53,31,603,16,24.510000,102.186005,0.836587,2.114118,3.722450,0.716201,-9.817438,0.589033,25,1,20,18,53,27,400,7,3,32.866471,-117.254065,-24.152000,-2455689.515111,-4767184.963445,3441516.393076,39.615540,14.814827,49.986637,-63.605553,4.042398,93.303543,0.630393,-0.362416,-0.383319,0.569496,61573,32.866550,-117.254052,-27.886898,-2455684.893300,-4767178.615470,3441521.781805,5.389167
154071203165,159876257000,1421434425627890176,159876257000,627899000,25,1,20,18,53,31,628,0,24.510000,102.186005,0.835449,2.116268,3.722651,0.771840,-9.771454,0.552091,25,1,20,18,53,27,400,7,3,32.866471,-117.254065,-24.152000,-2455689.515111,-4767184.963445,3441516.393076,39.615540,14.814827,49.986637,-63.586010,4.107502,93.276855,0.630516,-0.361880,-0.383650,0.569479,61573,32.866550,-117.254052,-27.883020,-2455684.898629,-4767178.619104,3441521.780173,5.393237
154100048962,159901257000,1421434425652890112,159901257000,652899000,25,1,20,18,53,31,653,16,24.510000,102.186005,0.834262,2.114833,3.725528,0.719721,-9.803037,0.642464,25,1,20,18,53,27,600,7,3,32.866470,-117.254065,-24.338000,-2455689.485111,-4767184.923445,3441516.123076,39.498013,14.755835,50.002884,-63.580807,4.164020,93.253036,0.630581,-0.361477,-0.383997,0.569428,22661,32.866550,-117.254051,-27.832260,-2455684.880508,-4767178.680929,3441521.801487,5.372940
154122866073,159926257000,1421434425677890048,159926257000,677899000,25,1,20,18,53,31,678,16,24.510000,102.173004,0.834749,2.115046,3.721483,0.684920,-9.808740,0.651957,25,1,20,18,53,27,600,7,3,32.866470,-117.254065,-24.338000,-2455689.485111,-4767184.923445,3441516.123076,39.498013,14.755835,50.002884,-63.576618,4.211826,93.233170,0.630637,-0.361138,-0.384291,0.569383,22661,32.866550,-117.254051,-27.828325,-2455684.885331,-4767178.684823,3441521.799962,5.376901
154147643850,159951257000,1421434425702890240,159951257000,702899000,25,1,20,18,53,31,703,16,24.510000,102.173004,0.835899,2.114826,3.722200,0.733205,-9.696014,0.543083,25,1,20,18,53,27,600,7,3,32.866470,-117.254065,-24.338000,-2455689.485111,-4767184.923445,3441516.123076,39.498013,14.755835,50.002884,-63.582542,4.252317,93.223373,0.630689,-0.360927,-0.384565,0.569274,22661,32.866550,-117.254051,-27.824688,-2455684.890049,-4767178.688475,3441521.798293,5.380876
154172019906,159976257000,1421434425727890176,159976257000,727899000,25,1,20,18,53,31,728,0,24.510000,102.186005,0.834749,2.116260,3.723124,0.721139,-9.886232,0.648148,25,1,20,18,53,27,600,7,3,32.866470,-117.254065,-24.338000,-2455689.485111,-4767184.923445,3441516.123076,39.498013,14.755835,50.002884,-63.596878,4.280647,93.231758,0.630769,-0.360886,-0.384759,0.569080,59525,32.866550,-117.254052,-27.820702,-2455684.894920,-4767178.692411,3441521.796771,5.384864
154196722295,160001257000,1421434425752890112,160001257000,752899000,25,1,20,18,53,31,753,16,24.510000,102.186005,0.834982,2.116747,3.723590,0.768351,-9.894857,0.647903,25,1,20,18,53,27,600,7,3,32.866470,-117.254065,-24.338000,-2455689.485111,-4767184.923445,3441516.123076,39.498013,14.755835,50.002884,-63.612869,4.321592,93.227661,0.630820,-0.360747,-0.385067,0.568904,59525,32.866550,-117.254052,-27.816251,-2455684.900039,-4767178.696730,3441521.795401,5.388866
154221882147,160026257000,1421434425777890304,160026257000,777899000,25,1,20,18,53,31,778,16,24.510000,102.173004,0.833590,2.116004,3.723130,0.789009,-9.841201,0.520191,25,1,20,18,53,27,600,7,3,32.866470,-117.254065,-24.338000,-2455689.485111,-4767184.923445,3441516.123076,39.498013,14.755835,50.002884,-63.635044,4.377151,93.205200,0.630802,-0.360504,-0.385540,0.568757,28805,32.866550,-117.254052,-27.812251,-2455684.904869,-4767178.700706,3441521.793879,5.392881
154246683480,160051257000,1421434425802889984,160051257000,802899000,25,1,20,18,53,31,803,16,24.510000,102.186005,0.834725,2.114833,3.725050,0.805869,-9.626219,0.453945,25,1,20,18,53,27,600,7,3,32.866470,-117.254065,-24.338000,-2455689.485111,-4767184.923445,3441516.123076,39.498013,14.755835,50.002884,-63.664444,4.439345,93.184586,0.630791,-0.360271,-0.386078,0.568551,28805,32.866550,-117.254052,-27.808114,-2455684.909826,-4767178.704823,3441521.792324,5.396911
154272659776,160076257000,1421434425827890176,160076257000,827899000,25,1,20,18,53,31,828,0,24.514999,102.202003,0.832637,2.114081,3.724826,0.765902,-9.751658,0.524891,25,1,20,18,53,27,600,7,3,32.866470,-117.254065,-24.338000,-2455689.485111,-4767184.923445,3441516.123076,39.498013,14.755835,50.002884,-63.697056,4.493150,93.170563,0.630778,-0.360123,-0.386567,0.568328,36997,32.866550,-117.254052,-27.803939,-2455684.914875,-4767178.709015,3441521.790669,5.400953
154297253202,160101257000,1421434425852890368,160101257000,852899000,25,1,20,18,53,31,853,16,24.510000,102.186005,0.833102,2.114328,3.724822,0.742193,-9.773271,0.467409,25,1,20,18,53,27,800,7,3,32.866469,-117.254065,-24.407000,-2455689.465111,-4767184.883445,3441516.063076,39.381229,14.698286,50.018738,-63.730484,4.545126,93.158417,0.630766,-0.359994,-0.387044,0.568098,36997,32.866550,-117.254051,-27.780554,-2455684.904406,-4767178.713761,3441521.834651,5.383236
154321647943,160126257000,1421434425877890048,160126257000,877899000,25,1,20,18,53,31,878,16,24.510000,102.186005,0.834275,2.114565,3.722442,0.718617,-9.777064,0.504124,25,1,20,18,53,27,800,7,3,32.866469,-117.254065,-24.407000,-2455689.465111,-4767184.883445,3441516.063076,39.381229,14.698286,50.018738,-63.759022,4.588494,93.146759,0.630747,-0.359886,-0.387450,0.567912,30853,32.866550,-117.254052,-27.776683,-2455684.909046,-4767178.717489,3441521.833366,5.387193
154347050091,160151257000,1421434425902890240,160151257000,902899000,25,1,20,18,53,31,903,16,24.510000,102.173004,0.834496,2.114583,3.724342,0.736099,-9.800563,0.567732,25,1,20,18,53,27,800,7,3,32.866469,-117.254065,-24.407000,-2455689.465111,-4767184.883445,3441516.063076,39.381229,14.698286,50.018738,-63.763912,4.630537,93.132401,0.630784,-0.359644,-0.387740,0.567825,30853,32.866550,-117.254052,-27.772535,-2455684.913996,-4767178.721427,3441521.832081,5.391162
154373024998,160176257000,1421434425927890176,160176257000,927899000,25,1,20,18,53,31,928,0,24.510000,102.186005,0.834275,2.114566,3.722442,0.867147,-9.647502,0.551723,25,1,20,18,53,27,800,7,3,32.866469,-117.254065,-24.407000,-2455689.465111,-4767184.883445,3441516.063076,39.381229,14.698286,50.018738,-63.766880,4.669556,93.113846,0.630798,-0.359394,-0.388017,0.567779,63621,32.866550,-117.254052,-27.768380,-2455684.918877,-4767178.725367,3441521.830859,5.395144
154397038165,160201257000,1421434425952890112,160201257000,952899000,25,1,20,18,53,31,953,16,24.510000,102.186005,0.832655,2.114299,3.721972,0.919991,-9.649777,0.516078,25,1,20,18,53,27,800,7,3,32.866469,-117.254065,-24.407000,-2455689.465111,-4767184.883445,3441516.063076,39.381229,14.698286,50.018738,-63.799088,4.705988,93.111717,0.630794,-0.359373,-0.388375,0.567552,63621,32.866550,-117.254052,-27.764179,-2455684.923791,-4767178.729362,3441521.829621,5.399140
154422189924,160226257000,1421434425977890304,160226257000,977899000,25,1,20,18,53,31,978,16,24.520000,102.173004,0.834027,2.113124,3.722942,0.851938,-9.764669,0.595652,25,1,20,18,53,27,800,7,3,32.866469,-117.254065,-24.407000,-2455689.465111,-4767184.883445,3441516.063076,39.381229,14.698286,50.018738,-63.850994,4.723671,93.125580,0.630752,-0.359614,-0.388681,0.567237,12421,32.866550,-117.254052,-27.760022,-2455684.928718,-4767178.733513,3441521.828076,5.403149
154447444702,160251257000,1421434426002889984,160251257000,2894000,25,1,20,18,53,32,3,16,24.510000,102.186005,0.832633,2.113846,3.725306,0.793505,-9.738479,0.523571,25,1,20,18,53,27,800,7,3,32.866469,-117.254065,-24.407000,-2455689.465111,-4767184.883445,3441516.063076,39.381229,14.698286,50.018738,-63.893372,4.733552,93.141113,0.630725,-0.359848,-0.388894,0.566972,12421,32.866550,-117.254052,-27.756029,-2455684.933616,-4767178.737372,3441521.826653,5.407172
154473000739,160276257000,1421434426027890176,160276257000,27894000,25,1,20,18,53,32,28,0,24.510000,102.186005,0.832185,2.114061,3.722927,0.733353,-9.808364,0.513129,25,1,20,18,53,27,800,7,3,32.866469,-117.254065,-24.407000,-2455689.465111,-4767184.883445,3441516.063076,39.381229,14.698286,50.018738,-63.920269,4.748234,93.156090,0.630758,-0.359970,-0.389057,0.566746,61573,32.866550,-117.254052,-27.752028,-2455684.938502,-4767178.741350,3441521.825089,5.411209
154496636628,160301257000,1421434426052891136,160301257000,52894000,25,1,20,18,53,32,53,16,24.510000,102.186005,0.832417,2.114553,3.723869,0.755436,-9.808985,0.538188,25,1,20,18,53,28,0,7,3,32.866468,-117.254065,-24.617000,-2455689.415111,-4767184.773445,3441515.863076,39.268673,14.642380,50.045303,-63.946480,4.768952,93.168816,0.630799,-0.360049,-0.389255,0.566513,61573,32.866550,-117.254051,-27.713790,-2455684.916624,-4767178.756809,3441521.889787,5.390927
154522535146,160326257000,1421434426077891328,160326257000,77894000,25,1,20,18,53,32,78,16,24.510000,102.173004,0.833113,2.115048,3.724336,0.792175,-9.724411,0.513356,25,1,20,18,53,28,0,7,3,32.866468,-117.254065,-24.617000,-2455689.415111,-4767184.773445,3441515.863076,39.268673,14.642380,50.045303,-63.967300,4.789714,93.177551,0.630838,-0.360085,-0.389439,0.566320,22661,32.866550,-117.254051,-27.709625,-2455684.921261,-4767178.760636,3441521.888909,5.394860
154547533054,160351257000,1421434426102891520,160351257000,102894000,25,1,20,18,53,32,103,16,24.502501,102.181007,0.834496,2.113372,3.722703,0.835469,-9.644311,0.470364,25,1,20,18,53,28,0,7,3,32.866468,-117.254065,-24.617000,-2455689.415111,-4767184.773445,3441515.863076,39.268673,14.642380,50.045303,-63.971096,4.800705,93.185738,0.630899,-0.360077,-0.389490,0.566223,22661,32.866550,-117.254051,-27.705422,-2455684.925960,-4767178.764558,3441521.887928,5.398806
154571665054,160376257000,1421434426127891200,160376257000,127894000,25,1,20,18,53,32,128,0,24.510002,102.186005,0.834039,2.114577,3.723871,0.860893,-9.758230,0.543692,25,1,20,18,53,28,0,7,3,32.866468,-117.254065,-24.617000,-2455689.415111,-4767184.773445,3441515.863076,39.268673,14.642380,50.045303,-63.974594,4.798164,93.199074,0.630947,-0.360155,-0.389452,0.566147,22661,32.866550,-117.254051,-27.701372,-2455684.930680,-4767178.768283,3441521.886920,5.402764
154597258998,160401257000,1421434426152891392,160401257000,152894000,25,1,20,18,53,32,153,16,24.510000,102.173004,0.833802,2.113364,3.722942,0.779023,-9.822205,0.591702,25,1,20,18,53,28,0,7,3,32.866468,-117.254065,-24.617000,-2455689.415111,-4767184.773445,3441515.863076,39.268673,14.642380,50.045303,-63.989033,4.786242,93.216949,0.630954,-0.360357,-0.389405,0.566042,59525,32.866550,-117.254052,-27.697231,-2455684.935485,-4767178.772131,3441521.885850,5.406735
154621454887,160426257000,1421434426177891328,160426257000,177894000,25,1,20,18,53,32,178,16,24.510000,102.173004,0.834041,2.113845,3.722458,0.752450,-9.781495,0.512723,25,1,20,18,53,28,0,7,3,32.866468,-117.254065,-24.617000,-2455689.415111,-4767184.773445,3441515.863076,39.268673,14.642380,50.045303,-64.010048,4.775538,93.233902,0.630940,-0.360586,-0.389399,0.565915,59525,32.866550,-117.254052,-27.693066,-2455684.940288,-4767178.776012,3441521.884781,5.410719
154647081369,160451257000,1421434426202891264,160451257000,202894000,25,1,20,18,53,32,203,16,24.515001,102.186005,0.833353,2.115287,3.723621,0.795036,-9.770679,0.484588,25,1,20,18,53,28,0,7,3,32.866468,-117.254065,-24.617000,-2455689.415111,-4767184.773445,3441515.863076,39.268673,14.642380,50.045303,-64.015533,4.770177,93.252937,0.631001,-0.360709,-0.389338,0.565811,28805,32.866550,-117.254052,-27.688901,-2455684.945056,-4767178.779942,3441521.883669,5.414717
154671937461,160476257000,1421434426227891456,160476257000,227894000,25,1,20,18,53,32,228,0,24.510000,102.186005,0.832432,2.115511,3.723142,0.928429,-9.787037,0.564911,25,1,20,18,53,28,0,7,3,32.866468,-117.254065,-24.617000,-2455689.415111,-4767184.773445,3441515.863076,39.268673,14.642380,50.045303,-64.007729,4.770989,93.269417,0.631110,-0.360718,-0.389252,0.565744,28805,32.866550,-117.254052,-27.684630,-2455684.949988,-4767178.783916,3441521.882575,5.418728
154696430591,160501257000,1421434426252891392,160501257000,252894000,25,1,20,18,53,32,253,16,24.510000,102.186005,0.832661,2.114543,3.721971,0.954300,-9.779179,0.479967,25,1,20,18,53,28,200,7,3,32.866467,-117.254065,-24.878000,-2455689.365111,-4767184.643445,3441515.603076,39.158379,14.587532,50.070274,-64.013313,4.765129,93.276749,0.631111,-0.360804,-0.389226,0.565706,36997,32.866550,-117.254051,-27.647981,-2455684.933297,-4767178.800172,3441521.939570,5.397573
154721676646,160526257000,1421434426277891328,160526257000,277894000,25,1,20,18,53,32,278,16,24.510000,102.186005,0.831944,2.113835,3.724835,0.891974,-9.824822,0.508315,25,1,20,18,53,28,200,7,3,32.866467,-117.254065,-24.878000,-2455689.365111,-4767184.643445,3441515.603076,39.158379,14.587532,50.070274,-64.045204,4.754159,93.277351,0.630981,-0.361039,-0.389324,0.565633,36997,32.866550,-117.254051,-27.643608,-2455684.937905,-4767178.804146,3441521.938894,5.401478
154747304313,160551257000,1421434426302891264,160551257000,302894000,25,1,20,18,53,32,303,16,24.510000,102.173004,0.834055,2.114554,3.721020,0.779050,-9.891400,0.536567,25,1,20,18,53,28,200,7,3,32.866467,-117.254065,-24.878000,-2455689.365111,-4767184.643445,3441515.603076,39.158379,14.587532,50.070274,-64.078789,4.742417,93.270630,0.630808,-0.361262,-0.389449,0.565598,10373,32.866550,-117.254051,-27.639291,-2455684.942503,-4767178.808125,3441521.938115,5.405395
154771794683,160576257000,1421434426327891456,160576257000,327894000,25,1,20,18,53,32,328,0,24.510000,102.186005,0.834747,2.114324,3.721024,0.763154,-9.788725,0.556804,25,1,20,18,53,28,200,7,3,32.866467,-117.254065,-24.878000,-2455689.365111,-4767184.643445,3441515.603076,39.158379,14.587532,50.070274,-64.092522,4.734597,93.263222,0.630705,-0.361353,-0.389499,0.565620,10373,32.866550,-117.254051,-27.634934,-2455684.947225,-4767178.812037,3441521.937415,5.409324
154796625776,160601257000,1421434426352891392,160601257000,352894000,25,1,20,18,53,32,353,16,24.520000,102.198006,0.834299,2.115758,3.720762,0.810060,-9.699177,0.589178,25,1,20,18,53,28,200,7,3,32.866467,-117.254065,-24.878000,-2455689.365111,-4767184.643445,3441515.603076,39.158379,14.587532,50.070274,-64.092392,4.738338,93.260071,0.630700,-0.361323,-0.389528,0.565624,51333,32.866550,-117.254051,-27.630390,-2455684.952114,-4767178.816173,3441521.936633,5.413265
154822036350,160626257000,1421434426377891328,160626257000,377894000,25,1,20,18,53,32,378,16,24.510000,102.186005,0.834497,2.113374,3.722942,0.888476,-9.587299,0.511530,25,1,20,18,53,28,200,7,3,32.866467,-117.254065,-24.878000,-2455689.365111,-4767184.643445,3441515.603076,39.158379,14.587532,50.070274,-64.085258,4.751940,93.257263,0.630749,-0.361203,-0.389573,0.565615,51333,32.866550,-117.254051,-27.625989,-2455684.956911,-4767178.820210,3441521.935788,5.417220
154847045202,160651257000,1421434426402891520,160651257000,402894000,25,1,20,18,53,32,403,16,24.525000,102.177002,0.833114,2.115052,3.724576,0.883876,-9.684233,0.539689,25,1,20,18,53,28,200,7,3,32.866467,-117.254065,-24.878000,-2455689.365111,-4767184.643445,3441515.603076,39.158379,14.587532,50.070274,-64.082886,4.761942,93.267082,0.630835,-0.361171,-0.389583,0.565534,30853,32.866550,-117.254051,-27.621730,-2455684.961608,-4767178.824193,3441521.934828,5.421187
154871575628,160676257000,1421434426427891200,160676257000,427894000,25,1,20,18,53,32,428,0,24.510000,102.186005,0.832894,2.114545,3.721734,0.768124,-9.781263,0.546531,25,1,20,18,53,28,200,7,3,32.866467,-117.254065,-24.878000,-2455689.365111,-4767184.643445,3441515.603076,39.158379,14.587532,50.070274,-64.089531,4.752264,93.283279,0.630865,-0.361313,-0.389514,0.565457,30853,32.866550,-117.254052,-27.617468,-2455684.966452,-4767178.828158,3441521.933792,5.425167
154897340017,160701257000,1421434426452891392,160701257000,452894000,25,1,20,18,53,32,453,16,24.510000,102.173004,0.833354,2.114799,3.722680,0.734158,-9.794847,0.592971,25,1,20,18,53,28,400,7,3,32.866465,-117.254065,-25.265000,-2455689.295111,-4767184.473445,3441515.183076,38.984177,14.526127,50.018013,-64.103119,4.724862,93.295357,0.630801,-0.361572,-0.389399,0.565442,55429,32.866550,-117.254052,-27.608836,-2455684.966226,-4767178.823254,3441521.956606,5.412695
154922044313,160726257000,1421434426477891328,160726257000,477894000,25,1,20,18,53,32,478,16,24.510000,102.186005,0.833814,2.114323,3.722450,0.759691,-9.779450,0.593740,25,1,20,18,53,28,400,7,3,32.866465,-117.254065,-25.265000,-2455689.295111,-4767184.473445,3441515.183076,38.984177,14.526127,50.018013,-64.115196,4.696780,93.297951,0.630693,-0.361793,-0.389303,0.565487,55429,32.866550,-117.254052,-27.604492,-2455684.970973,-4767178.827048,3441521.956025,5.416633
154946490720,160751257000,1421434426502891264,160751257000,502894000,25,1,20,18,53,32,503,16,24.510000,102.186005,0.835199,2.115323,3.724808,0.835721,-9.757148,0.615158,25,1,20,18,53,28,400,7,3,32.866465,-117.254065,-25.265000,-2455689.295111,-4767184.473445,3441515.183076,38.984177,14.526127,50.018013,-64.125832,4.669822,93.295059,0.630565,-0.361983,-0.389223,0.565563,12421,32.866550,-117.254052,-27.600124,-2455684.975768,-4767178.830856,3441521.955434,5.420583
154972123628,160776257000,1421434426527891456,160776257000,527894000,25,1,20,18,53,32,528,0,24.510000,102.186005,0.836140,2.115068,3.721486,0.857242,-9.812604,0.544224,25,1,20,18,53,28,400,7,3,32.866465,-117.254065,-25.265000,-2455689.295111,-4767184.473445,3441515.183076,38.984177,14.526127,50.018013,-64.144585,4.641854,93.290192,0.630399,-0.362215,-0.389185,0.565626,12421,32.866550,-117.254052,-27.595697,-2455684.980630,-4767178.834768,3441521.954764,5.424546
154997175461,160801257000,1421434426552891136,160801257000,552894000,25,1,20,18,53,32,553,16,24.510000,102.186005,0.832893,2.115277,3.723146,0.821916,-9.803352,0.515805,25,1,20,18,53,28,400,7,3,32.866465,-117.254065,-25.265000,-2455689.295111,-4767184.473445,3441515.183076,38.984177,14.526127,50.018013,-64.168365,4.614187,93.286301,0.630223,-0.362477,-0.389169,0.565665,59525,32.866550,-117.254052,-27.591269,-2455684.985483,-4767178.838701,3441521.954073,5.428522
155021639350,160826257000,1421434426577891328,160826257000,577894000,25,1,20,18,53,32,578,16,24.510000,102.186005,0.832890,2.116012,3.724797,0.839884,-9.774532,0.512978,25,1,20,18,53,28,400,7,3,32.866465,-117.254065,-25.265000,-2455689.295111,-4767184.473445,3441515.183076,38.984177,14.526127,50.018013,-64.181946,4.591048,93.284973,0.630105,-0.362667,-0.389119,0.565709,59525,32.866550,-117.254052,-27.586816,-2455684.990365,-4767178.842676,3441521.953348,5.432510
155046949850,160851257000,1421434426602891520,160851257000,602894000,25,1,20,18,53,32,603,16,24.510000,102.173004,0.834263,2.113861,3.724121,0.764133,-9.806502,0.644807,25,1,20,18,53,28,400,7,3,32.866465,-117.254065,-25.265000,-2455689.295111,-4767184.473445,3441515.183076,38.984177,14.526127,50.018013,-64.176300,4.576992,93.280403,0.630058,-0.362694,-0.389032,0.565804,6277,32.866550,-117.254052,-27.582196,-2455684.995365,-4767178.846780,3441521.952672,5.436512
155071409609,160876257000,1421434426627891200,160876257000,627894000,25,1,20,18,53,32,628,0,24.510000,102.186005,0.833591,2.115281,3.722432,0.725382,-9.830270,0.620058,25,1,20,18,53,28,400,7,3,32.866465,-117.254065,-25.265000,-2455689.295111,-4767184.473445,3441515.183076,38.984177,14.526127,50.018013,-64.155792,4.583504,93.261658,0.630050,-0.362484,-0.389024,0.565953,6277,32.866550,-117.254052,-27.577691,-2455685.000375,-4767178.850851,3441521.951821,5.440527
155097085998,160901257000,1421434426652891392,160901257000,652894000,25,1,20,18,53,32,653,16,24.510000,102.186005,0.835209,2.114332,3.721261,0.783868,-9.756227,0.547202,25,1,20,18,53,28,600,7,3,32.866462,-117.254065,-25.657000,-2455689.225111,-4767184.283445,3441514.763076,38.831985,14.471544,49.986443,-64.145119,4.607294,93.240845,0.630051,-0.362230,-0.389162,0.566019,39045,32.866550,-117.254052,-27.566104,-2455684.997198,-4767178.847556,3441521.979956,5.426725
155122028979,160926257000,1421434426677891328,160926257000,677894000,25,1,20,18,53,32,678,16,24.520000,102.173004,0.835434,2.114103,3.722216,0.887946,-9.740941,0.620320,25,1,20,18,53,28,600,7,3,32.866462,-117.254065,-25.657000,-2455689.225111,-4767184.283445,3441514.763076,38.831985,14.471544,49.986443,-64.153259,4.638205,93.230362,0.630065,-0.362078,-0.389398,0.565939,39045,32.866550,-117.254052,-27.561512,-2455685.002015,-4767178.851448,3441521.979649,5.430688
155146766961,160951257000,1421434426702891264,160951257000,702894000,25,1,20,18,53,32,703,16,24.515001,102.173004,0.834973,2.114582,3.722683,0.898033,-9.794761,0.575949,25,1,20,18,53,28,600,7,3,32.866462,-117.254065,-25.657000,-2455689.225111,-4767184.283445,3441514.763076,38.831985,14.471544,49.986443,-64.169914,4.662260,93.212723,0.629997,-0.361985,-0.389662,0.565893,39045,32.866550,-117.254052,-27.556879,-2455685.006826,-4767178.855443,3441521.979280,5.434665
155171443442,160976257000,1421434426727891456,160976257000,727894000,25,1,20,18,53,32,728,0,24.510000,102.173004,0.834291,2.115773,3.722425,0.890274,-9.835021,0.636340,25,1,20,18,53,28,600,7,3,32.866462,-117.254065,-25.657000,-2455689.225111,-4767184.283445,3441514.763076,38.831985,14.471544,49.986443,-64.200378,4.671119,93.186546,0.629798,-0.362017,-0.389941,0.565902,10373,32.866550,-117.254052,-27.552175,-2455685.011682,-4767178.859551,3441521.978853,5.438654
155199279424,161001257000,1421434426752891392,161001257000,752894000,25,1,20,18,53,32,753,16,24.510000,102.186005,0.831697,2.112886,3.726517,0.834662,-9.741838,0.565770,25,1,20,18,53,28,600,7,3,32.866462,-117.254065,-25.657000,-2455689.225111,-4767184.283445,3441514.763076,38.831985,14.471544,49.986443,-64.253433,4.674321,93.147369,0.629446,-0.362158,-0.390344,0.565925,10373,32.866550,-117.254052,-27.547344,-2455685.016667,-4767178.863686,3441521.978532,5.442657
155221542665,161026257000,1421434426777891328,161026257000,777894000,25,1,20,18,53,32,778,16,24.520000,102.186005,0.833825,2.115773,3.723140,0.721046,-9.766905,0.503321,25,1,20,18,53,28,600,7,3,32.866462,-117.254065,-25.657000,-2455689.225111,-4767184.283445,3441514.763076,38.831985,14.471544,49.986443,-64.307610,4.689781,93.107979,0.629126,-0.362241,-0.390817,0.565901,51333,32.866550,-117.254052,-27.542634,-2455685.021534,-4767178.867840,3441521.978048,5.446672
155246481294,161051257000,1421434426802891264,161051257000,802894000,25,1,20,18,53,32,803,16,24.529999,102.177002,0.834256,2.112902,3.724140,0.785685,-9.685110,0.510436,25,1,20,18,53,28,600,7,3,32.866462,-117.254065,-25.657000,-2455689.225111,-4767184.283445,3441514.763076,38.831985,14.471544,49.986443,-64.359093,4.717660,93.079750,0.628907,-0.362282,-0.391306,0.565781,51333,32.866550,-117.254052,-27.537910,-2455685.026475,-4767178.871984,3441521.977550,5.450702
155271929776,161076257000,1421434426827891456,161076257000,827894000,25,1,20,18,53,32,828,0,24.510002,102.186005,0.831936,2.112878,3.725092,0.776619,-9.681929,0.494494,25,1,20,18,53,28,600,7,3,32.866462,-117.254065,-25.657000,-2455689.225111,-4767184.283445,3441514.763076,38.831985,14.471544,49.986443,-64.408615,4.743968,93.062172,0.628742,-0.362356,-0.391743,0.565614,30853,32.866550,-117.254052,-27.533246,-2455685.031449,-4767178.876074,3441521.976990,5.454744
155296377053,161101257000,1421434426852891392,161101257000,852894000,25,1,20,18,53,32,853,16,24.510000,102.173004,0.835425,2.113876,3.723647,0.730643,-9.744636,0.471519,25,1,20,18,53,28,800,7,3,32.866462,-117.254065,-25.858000,-2455689.175111,-4767184.183445,3441514.563076,38.663933,14.413585,49.942120,-64.452667,4.753799,93.055054,0.628597,-0.362522,-0.392035,0.565467,30853,32.866550,-117.254052,-27.514507,-2455685.021889,-4767178.880915,3441522.011636,5.433418
155321316553,161126257000,1421434426877891328,161126257000,877894000,25,1,20,18,53,32,878,16,24.510000,102.186005,0.836133,2.114353,3.721976,0.801693,-9.731851,0.490201,25,1,20,18,53,28,800,7,3,32.866462,-117.254065,-25.858000,-2455689.175111,-4767184.183445,3441514.563076,38.663933,14.413585,49.942120,-64.489960,4.750935,93.049850,0.628444,-0.362724,-0.392220,0.565378,55429,32.866550,-117.254052,-27.509851,-2455685.026689,-4767178.884699,3441522.011605,5.438149
155346940072,161151257000,1421434426902891520,161151257000,902894000,25,1,20,18,53,32,903,16,24.510000,102.173004,0.835428,2.114359,3.723876,0.805884,-9.776200,0.547194,25,1,20,18,53,28,800,7,3,32.866462,-117.254065,-25.858000,-2455689.175111,-4767184.183445,3441514.563076,38.663933,14.413585,49.942120,-64.513336,4.747774,93.045662,0.628340,-0.362854,-0.392332,0.565332,55429,32.866550,-117.254052,-27.505246,-2455685.031505,-4767178.888535,3441522.011399,5.442105
155371491498,161176257000,1421434426927891200,161176257000,927894000,25,1,20,18,53,32,928,0,24.510000,102.186005,0.835204,2.115321,3.724335,0.804613,-9.778984,0.502170,25,1,20,18,53,28,800,7,3,32.866462,-117.254065,-25.858000,-2455689.175111,-4767184.183445,3441514.563076,38.663933,14.413585,49.942120,-64.528313,4.743526,93.039253,0.628249,-0.362937,-0.392404,0.565332,12421,32.866550,-117.254052,-27.500610,-2455685.036357,-4767178.892386,3441522.011205,5.446074
155396550924,161201257000,1421434426952891392,161201257000,952894000,25,1,20,18,53,32,953,16,24.510000,102.186005,0.833346,2.114331,3.723879,0.841524,-9.834161,0.478324,25,1,20,18,53,28,800,7,3,32.866462,-117.254065,-25.858000,-2455689.175111,-4767184.183445,3441514.563076,38.663933,14.413585,49.942120,-64.547394,4.739943,93.032608,0.628145,-0.363037,-0.392501,0.565315,12421,32.866550,-117.254052,-27.495904,-2455685.041303,-4767178.896276,3441522.011019,5.450055
155421518294,161226257000,1421434426977891328,161226257000,977894000,25,1,20,18,53,32,978,16,24.510000,102.198006,0.833551,2.112180,3.725104,0.803576,-9.783926,0.471742,25,1,20,18,53,28,800,7,3,32.866462,-117.254065,-25.858000,-2455689.175111,-4767184.183445,3441514.563076,38.663933,14.413585,49.942120,-64.564194,4.739396,93.022728,0.628041,-0.363098,-0.392612,0.565314,59525,32.866550,-117.254052,-27.491259,-2455685.046219,-4767178.900183,3441522.010718,5.454049
155445998942,161251257000,1421434427002891264,161251257000,2899000,25,1,20,18,53,33,3,16,24.510000,102.173004,0.833551,2.112422,3.725337,0.795322,-9.821832,0.498261,25,1,20,18,53,28,800,7,3,32.866462,-117.254065,-25.858000,-2455689.175111,-4767184.183445,3441514.563076,38.663933,14.413585,49.942120,-64.564575,4.741315,93.010490,0.627985,-0.363048,-0.392663,0.565373,59525,32.866550,-117.254052,-27.486504,-2455685.051365,-4767178.904089,3441522.010459,5.458055
155472428572,161276256000,1421434427027890432,161276256000,27898000,25,1,20,18,53,33,28,0,24.510000,102.173004,0.833331,2.113865,3.725787,0.827499,-9.788036,0.457675,25,1,20,18,53,28,800,7,3,32.866462,-117.254065,-25.858000,-2455689.175111,-4767184.183445,3441514.563076,38.663933,14.413585,49.942120,-64.547958,4.752170,92.994415,0.627991,-0.362846,-0.392688,0.565479,6277,32.866550,-117.254052,-27.481705,-2455685.056475,-4767178.908123,3441522.010130,5.462075
155497446072,161301257000,1421434427052892928,161301257000,52899000,25,1,20,18,53,33,53,16,24.510000,102.173004,0.834957,2.114367,3.725540,0.827833,-9.803860,0.465211,25,1,20,18,53,29,0,7,3,32.866460,-117.254065,-26.037000,-2455689.145111,-4767184.123445,3441514.333076,38.498447,14.355846,49.895607,-64.529991,4.766260,92.978546,0.628012,-0.362619,-0.392723,0.565577,6277,32.866550,-117.254051,-27.455693,-2455685.006697,-4767178.939179,3441522.050612,5.431151
